[
	{
		"success": true,
		"timeout": false,
		"failed_images": [],
		"failed_audio": [],
		"failed_video": [],
		"trial_type": "preload",
		"trial_index": 0,
		"plugin_version": "2.1.0",
		"time_elapsed": 31
	},
	{
		"rt": 1758,
		"stimulus": "\n        <div style=\"text-align: center; margin: 30px auto; max-width: 1000px; padding-top: 20px;\">\n          <p style=\"font-weight: bold; font-size: 50px; line-height: 1.2; margin-bottom: 40px; margin-top: -100px;\">Tere tulemast nurkade eristamise katsesse!</p> \n          <p style=\"font-weight: bold; font-size: 30px; line-height: 1.2; margin-bottom: 40px;\">Selle katse eesmärk on välja selgitada, kui palju peab nurkade suurus erinema, et seda oleks võimalik tuvastada.</p>\n          <p style=\"text-align: left; font-weight: normal; font-size: 25px; line-height: 1.3; margin-bottom: 0px; width: 100%; text-indent: -50px;\"><span style=\"font-size: 28px;\">&#9679;</span> Katse koosneb 10-st seeriast. Igas seerias on 11 erineva suurusega nurka, mille puhul tuleb otsustada, kas see on suurem, väiksem või võrdne 90° nurgaga.</p>\n          <p style=\"text-align: left; font-weight: normal; font-size: 25px; line-height: 1.3; margin-bottom: 0px; width: 100%; text-indent: -50px;\"><span style=\"font-size: 28px;\">&#9679;</span> Esmalt esitatakse teile 90° nurk ning 2 sekundi pärast juhusliku suurusega nurk. Teie ülesanne on otsustada, kas see on väiksem, suurem või võrdne 90° nurgaga.</p>\n          <p style=\"text-align: left; font-weight: normal; font-size: 25px; line-height: 1.3; margin-bottom: 0px; width: 100%; text-indent: -50px;\"><span style=\"font-size: 28px;\">&#9679;</span> Iga ülesande puhul on teil aega otsustada 15 sekundit, peale mida liigub katse automaatselt järgmise ülesande juurde.</p>\n          <p style=\"text-align: left; font-weight: normal; font-size: 25px; line-height: 1.3; margin-bottom: 0px; width: 100%; text-indent: -50px;\"><span style=\"font-size: 28px;\">&#9679;</span> Iga seeria lõpus kuvatakse teile ekraan, mis teavitab, et seeria on lõpetatud. Siis on võimalik teha paus ning jätkata siis, kui selleks valmis olete.</p>\n        </div>\n      ",
		"response": 0,
		"trial_type": "html-button-response",
		"trial_index": 1,
		"plugin_version": "2.1.0",
		"time_elapsed": 1791
	},
	{
		"rt": 2331,
		"stimulus": "\n        <div style=\"text-align: center; margin: 30px auto; max-width: 1000px; padding-top: 20px;\">\n          <p style=\"font-weight: bold; font-size: 50px; line-height: 1.2; margin-bottom: 40px; margin-top: -100px;\">Tere tulemast nurkade eristamise katsesse!</p> \n          <p style=\"font-weight: bold; font-size: 30px; line-height: 1.2; margin-bottom: 40px;\">Selle katse eesmärk on välja selgitada, kui palju peab nurkade suurus erinema, et seda oleks võimalik tuvastada.</p>\n          <p style=\"text-align: left; font-weight: normal; font-size: 25px; line-height: 1.3; margin-bottom: 0px; width: 100%; text-indent: -50px;\"><span style=\"font-size: 28px;\">&#9679;</span> Katse koosneb 10-st seeriast. Igas seerias on 11 erineva suurusega nurka, mille puhul tuleb otsustada, kas see on suurem, väiksem või võrdne 90° nurgaga.</p>\n          <p style=\"text-align: left; font-weight: normal; font-size: 25px; line-height: 1.3; margin-bottom: 0px; width: 100%; text-indent: -50px;\"><span style=\"font-size: 28px;\">&#9679;</span> Esmalt esitatakse teile 90° nurk ning 2 sekundi pärast juhusliku suurusega nurk. Teie ülesanne on otsustada, kas see on väiksem, suurem või võrdne 90° nurgaga.</p>\n          <p style=\"text-align: left; font-weight: normal; font-size: 25px; line-height: 1.3; margin-bottom: 0px; width: 100%; text-indent: -50px;\"><span style=\"font-size: 28px;\">&#9679;</span> Iga ülesande puhul on teil aega otsustada 15 sekundit, peale mida liigub katse automaatselt järgmise ülesande juurde.</p>\n          <p style=\"text-align: left; font-weight: normal; font-size: 25px; line-height: 1.3; margin-bottom: 0px; width: 100%; text-indent: -50px;\"><span style=\"font-size: 28px;\">&#9679;</span> Iga seeria lõpus kuvatakse teile ekraan, mis teavitab, et seeria on lõpetatud. Siis on võimalik teha paus ning jätkata siis, kui selleks valmis olete.</p>\n        </div>\n      ",
		"response": 0,
		"trial_type": "html-button-response",
		"trial_index": 2,
		"plugin_version": "2.1.0",
		"time_elapsed": 4125
	},
	{
		"rt": 3645,
		"stimulus": "\n        <p style=\"font-weight: bold; font-size: 40px;\">Katse käigus palume teil mitte rääkida ega suhelda teiste katseisikute või katsejuhiga.</p>\n        <p style=\"font-weight: bold; font-size: 40px;\">Kas olete valmis katsega alustama?</p>\n      ",
		"response": " ",
		"trial_type": "html-keyboard-response",
		"trial_index": 3,
		"plugin_version": "2.1.0",
		"time_elapsed": 7773
	},
	{
		"rt": 1549,
		"stimulus": "\n        <p>Vajutage suvalist klahvi, et alustada.</p>\n      ",
		"response": " ",
		"trial_type": "html-keyboard-response",
		"trial_index": 4,
		"plugin_version": "2.1.0",
		"time_elapsed": 9324
	},
	{
		"rt": 884,
		"stimulus": "\n        <p>Kui nurk on väiksem kui 90 kraadi, vajutage \"J\".</p>\n        <div style=\"text-align: center; margin-top: 20px;\">\n        </div>\n        <p>Vajutage suvalist klahvi, et jätkata.</p>\n      ",
		"response": " ",
		"trial_type": "html-keyboard-response",
		"trial_index": 5,
		"plugin_version": "2.1.0",
		"time_elapsed": 10212
	},
	{
		"rt": 284,
		"stimulus": "\n        <p>Kui nurk on võrdne 90 kraadiga, vajutage tühikuklahvi.</p>\n        <div style=\"text-align: center; margin-top: 20px;\">\n        </div>\n        <p>Vajutage suvalist klahvi, et jätkata.</p>\n      ",
		"response": " ",
		"trial_type": "html-keyboard-response",
		"trial_index": 6,
		"plugin_version": "2.1.0",
		"time_elapsed": 10498
	},
	{
		"rt": 347,
		"stimulus": "\n        <p>Kui nurk on suurem kui 90 kraadi, vajutage \"F\".</p>\n        <div style=\"text-align: center; margin-top: 20px;\">\n        </div>\n        <p>Vajutage suvalist klahvi, et jätkata.</p>\n      ",
		"response": " ",
		"trial_type": "html-keyboard-response",
		"trial_index": 7,
		"plugin_version": "2.1.0",
		"time_elapsed": 10847
	},
	{
		"rt": 604,
		"stimulus": "\n        <p>Kas olete valmis eksperimendiga alustama?</p>\n        <p>Vajutage suvalist klahvi, et alustada.</p>\n      ",
		"response": " ",
		"trial_type": "html-keyboard-response",
		"trial_index": 8,
		"plugin_version": "2.1.0",
		"time_elapsed": 11453
	},
	{
		"task": "fixation",
		"rt": null,
		"stimulus": "img/90.0 kraadi.png",
		"response": null,
		"trial_type": "image-keyboard-response",
		"trial_index": 9,
		"plugin_version": "2.1.0",
		"time_elapsed": 12490
	},
	{
		"task": "interval",
		"rt": null,
		"stimulus": "<div style=\"text-align: center;\"><p></p></div>",
		"response": null,
		"trial_type": "html-keyboard-response",
		"trial_index": 10,
		"plugin_version": "2.1.0",
		"time_elapsed": 14494
	},
	{
		"task": "stimulus",
		"rt": null,
		"stimulus": "img/90.4 kraadi.png",
		"response": null,
		"trial_type": "image-keyboard-response",
		"trial_index": 11,
		"plugin_version": "2.1.0",
		"time_elapsed": 15532
	},
	{
		"task": "response",
		"correct_response": "j",
		"rt": 5037,
		"stimulus": "\n        <p>Kas nurk oli suurem, väiksem või võrdne 90&deg; kraadiga võrreldes võrdlusnurgaga (90&deg;)?</p>\n        <p>Vajutage \"F\", kui nurk oli väiksem, \"J\", kui nurk oli suurem, või tühikuklahvi, kui nurk oli võrdne.</p>\n      ",
		"response": " ",
		"trial_type": "html-keyboard-response",
		"trial_index": 12,
		"plugin_version": "2.1.0",
		"time_elapsed": 20572,
		"correct": false
	},
	{
		"rt": null,
		"stimulus": "\n        <div style=\"text-align: center; font-size: 48px;\">+</div>\n      ",
		"response": null,
		"trial_type": "html-keyboard-response",
		"trial_index": 13,
		"plugin_version": "2.1.0",
		"time_elapsed": 22576
	},
	{
		"task": "fixation",
		"rt": null,
		"stimulus": "img/90.0 kraadi.png",
		"response": null,
		"trial_type": "image-keyboard-response",
		"trial_index": 14,
		"plugin_version": "2.1.0",
		"time_elapsed": 23587
	},
	{
		"task": "interval",
		"rt": null,
		"stimulus": "<div style=\"text-align: center;\"><p></p></div>",
		"response": null,
		"trial_type": "html-keyboard-response",
		"trial_index": 15,
		"plugin_version": "2.1.0",
		"time_elapsed": 25591
	},
	{
		"task": "stimulus",
		"rt": null,
		"stimulus": "img/90.6 kraadi.png",
		"response": null,
		"trial_type": "image-keyboard-response",
		"trial_index": 16,
		"plugin_version": "2.1.0",
		"time_elapsed": 26630
	},
	{
		"task": "response",
		"correct_response": "j",
		"rt": 3523,
		"stimulus": "\n        <p>Kas nurk oli suurem, väiksem või võrdne 90&deg; kraadiga võrreldes võrdlusnurgaga (90&deg;)?</p>\n        <p>Vajutage \"F\", kui nurk oli väiksem, \"J\", kui nurk oli suurem, või tühikuklahvi, kui nurk oli võrdne.</p>\n      ",
		"response": "j",
		"trial_type": "html-keyboard-response",
		"trial_index": 17,
		"plugin_version": "2.1.0",
		"time_elapsed": 30156,
		"correct": true
	},
	{
		"rt": null,
		"stimulus": "\n        <div style=\"text-align: center; font-size: 48px;\">+</div>\n      ",
		"response": null,
		"trial_type": "html-keyboard-response",
		"trial_index": 18,
		"plugin_version": "2.1.0",
		"time_elapsed": 32160
	},
	{
		"task": "fixation",
		"rt": null,
		"stimulus": "img/90.0 kraadi.png",
		"response": null,
		"trial_type": "image-keyboard-response",
		"trial_index": 19,
		"plugin_version": "2.1.0",
		"time_elapsed": 33170
	},
	{
		"task": "interval",
		"rt": null,
		"stimulus": "<div style=\"text-align: center;\"><p></p></div>",
		"response": null,
		"trial_type": "html-keyboard-response",
		"trial_index": 20,
		"plugin_version": "2.1.0",
		"time_elapsed": 35174
	},
	{
		"task": "stimulus",
		"rt": null,
		"stimulus": "img/89.2 kraadi.png",
		"response": null,
		"trial_type": "image-keyboard-response",
		"trial_index": 21,
		"plugin_version": "2.1.0",
		"time_elapsed": 36212
	},
	{
		"task": "response",
		"correct_response": "f",
		"rt": 1098,
		"stimulus": "\n        <p>Kas nurk oli suurem, väiksem või võrdne 90&deg; kraadiga võrreldes võrdlusnurgaga (90&deg;)?</p>\n        <p>Vajutage \"F\", kui nurk oli väiksem, \"J\", kui nurk oli suurem, või tühikuklahvi, kui nurk oli võrdne.</p>\n      ",
		"response": "f",
		"trial_type": "html-keyboard-response",
		"trial_index": 22,
		"plugin_version": "2.1.0",
		"time_elapsed": 37312,
		"correct": true
	},
	{
		"rt": null,
		"stimulus": "\n        <div style=\"text-align: center; font-size: 48px;\">+</div>\n      ",
		"response": null,
		"trial_type": "html-keyboard-response",
		"trial_index": 23,
		"plugin_version": "2.1.0",
		"time_elapsed": 39316
	},
	{
		"task": "fixation",
		"rt": null,
		"stimulus": "img/90.0 kraadi.png",
		"response": null,
		"trial_type": "image-keyboard-response",
		"trial_index": 24,
		"plugin_version": "2.1.0",
		"time_elapsed": 40325
	},
	{
		"task": "interval",
		"rt": null,
		"stimulus": "<div style=\"text-align: center;\"><p></p></div>",
		"response": null,
		"trial_type": "html-keyboard-response",
		"trial_index": 25,
		"plugin_version": "2.1.0",
		"time_elapsed": 42329
	},
	{
		"task": "stimulus",
		"rt": null,
		"stimulus": "img/90.2 kraadi.png",
		"response": null,
		"trial_type": "image-keyboard-response",
		"trial_index": 26,
		"plugin_version": "2.1.0",
		"time_elapsed": 43367
	},
	{
		"task": "response",
		"correct_response": "j",
		"rt": 1041,
		"stimulus": "\n        <p>Kas nurk oli suurem, väiksem või võrdne 90&deg; kraadiga võrreldes võrdlusnurgaga (90&deg;)?</p>\n        <p>Vajutage \"F\", kui nurk oli väiksem, \"J\", kui nurk oli suurem, või tühikuklahvi, kui nurk oli võrdne.</p>\n      ",
		"response": " ",
		"trial_type": "html-keyboard-response",
		"trial_index": 27,
		"plugin_version": "2.1.0",
		"time_elapsed": 44410,
		"correct": false
	},
	{
		"rt": null,
		"stimulus": "\n        <div style=\"text-align: center; font-size: 48px;\">+</div>\n      ",
		"response": null,
		"trial_type": "html-keyboard-response",
		"trial_index": 28,
		"plugin_version": "2.1.0",
		"time_elapsed": 46414
	},
	{
		"task": "fixation",
		"rt": null,
		"stimulus": "img/90.0 kraadi.png",
		"response": null,
		"trial_type": "image-keyboard-response",
		"trial_index": 29,
		"plugin_version": "2.1.0",
		"time_elapsed": 47424
	},
	{
		"task": "interval",
		"rt": null,
		"stimulus": "<div style=\"text-align: center;\"><p></p></div>",
		"response": null,
		"trial_type": "html-keyboard-response",
		"trial_index": 30,
		"plugin_version": "2.1.0",
		"time_elapsed": 49428
	},
	{
		"task": "stimulus",
		"rt": null,
		"stimulus": "img/90.8 kraadi.png",
		"response": null,
		"trial_type": "image-keyboard-response",
		"trial_index": 31,
		"plugin_version": "2.1.0",
		"time_elapsed": 50465
	},
	{
		"task": "response",
		"correct_response": "j",
		"rt": 872,
		"stimulus": "\n        <p>Kas nurk oli suurem, väiksem või võrdne 90&deg; kraadiga võrreldes võrdlusnurgaga (90&deg;)?</p>\n        <p>Vajutage \"F\", kui nurk oli väiksem, \"J\", kui nurk oli suurem, või tühikuklahvi, kui nurk oli võrdne.</p>\n      ",
		"response": "j",
		"trial_type": "html-keyboard-response",
		"trial_index": 32,
		"plugin_version": "2.1.0",
		"time_elapsed": 51340,
		"correct": true
	},
	{
		"rt": null,
		"stimulus": "\n        <div style=\"text-align: center; font-size: 48px;\">+</div>\n      ",
		"response": null,
		"trial_type": "html-keyboard-response",
		"trial_index": 33,
		"plugin_version": "2.1.0",
		"time_elapsed": 53342
	},
	{
		"task": "fixation",
		"rt": null,
		"stimulus": "img/90.0 kraadi.png",
		"response": null,
		"trial_type": "image-keyboard-response",
		"trial_index": 34,
		"plugin_version": "2.1.0",
		"time_elapsed": 54354
	},
	{
		"task": "interval",
		"rt": null,
		"stimulus": "<div style=\"text-align: center;\"><p></p></div>",
		"response": null,
		"trial_type": "html-keyboard-response",
		"trial_index": 35,
		"plugin_version": "2.1.0",
		"time_elapsed": 56358
	},
	{
		"task": "stimulus",
		"rt": null,
		"stimulus": "img/90.0 kraadi.png",
		"response": null,
		"trial_type": "image-keyboard-response",
		"trial_index": 36,
		"plugin_version": "2.1.0",
		"time_elapsed": 57368
	},
	{
		"task": "response",
		"correct_response": " ",
		"rt": 1308,
		"stimulus": "\n        <p>Kas nurk oli suurem, väiksem või võrdne 90&deg; kraadiga võrreldes võrdlusnurgaga (90&deg;)?</p>\n        <p>Vajutage \"F\", kui nurk oli väiksem, \"J\", kui nurk oli suurem, või tühikuklahvi, kui nurk oli võrdne.</p>\n      ",
		"response": "j",
		"trial_type": "html-keyboard-response",
		"trial_index": 37,
		"plugin_version": "2.1.0",
		"time_elapsed": 58678,
		"correct": false
	},
	{
		"rt": null,
		"stimulus": "\n        <div style=\"text-align: center; font-size: 48px;\">+</div>\n      ",
		"response": null,
		"trial_type": "html-keyboard-response",
		"trial_index": 38,
		"plugin_version": "2.1.0",
		"time_elapsed": 60682
	},
	{
		"task": "fixation",
		"rt": null,
		"stimulus": "img/90.0 kraadi.png",
		"response": null,
		"trial_type": "image-keyboard-response",
		"trial_index": 39,
		"plugin_version": "2.1.0",
		"time_elapsed": 61692
	},
	{
		"task": "interval",
		"rt": null,
		"stimulus": "<div style=\"text-align: center;\"><p></p></div>",
		"response": null,
		"trial_type": "html-keyboard-response",
		"trial_index": 40,
		"plugin_version": "2.1.0",
		"time_elapsed": 63696
	},
	{
		"task": "stimulus",
		"rt": null,
		"stimulus": "img/91.0 kraadi.png",
		"response": null,
		"trial_type": "image-keyboard-response",
		"trial_index": 41,
		"plugin_version": "2.1.0",
		"time_elapsed": 64733
	},
	{
		"task": "response",
		"correct_response": "j",
		"rt": 731,
		"stimulus": "\n        <p>Kas nurk oli suurem, väiksem või võrdne 90&deg; kraadiga võrreldes võrdlusnurgaga (90&deg;)?</p>\n        <p>Vajutage \"F\", kui nurk oli väiksem, \"J\", kui nurk oli suurem, või tühikuklahvi, kui nurk oli võrdne.</p>\n      ",
		"response": "j",
		"trial_type": "html-keyboard-response",
		"trial_index": 42,
		"plugin_version": "2.1.0",
		"time_elapsed": 65467,
		"correct": true
	},
	{
		"rt": null,
		"stimulus": "\n        <div style=\"text-align: center; font-size: 48px;\">+</div>\n      ",
		"response": null,
		"trial_type": "html-keyboard-response",
		"trial_index": 43,
		"plugin_version": "2.1.0",
		"time_elapsed": 67471
	},
	{
		"task": "fixation",
		"rt": null,
		"stimulus": "img/90.0 kraadi.png",
		"response": null,
		"trial_type": "image-keyboard-response",
		"trial_index": 44,
		"plugin_version": "2.1.0",
		"time_elapsed": 68482
	},
	{
		"task": "interval",
		"rt": null,
		"stimulus": "<div style=\"text-align: center;\"><p></p></div>",
		"response": null,
		"trial_type": "html-keyboard-response",
		"trial_index": 45,
		"plugin_version": "2.1.0",
		"time_elapsed": 70485
	},
	{
		"task": "stimulus",
		"rt": null,
		"stimulus": "img/89.4 kraadi.png",
		"response": null,
		"trial_type": "image-keyboard-response",
		"trial_index": 46,
		"plugin_version": "2.1.0",
		"time_elapsed": 71520
	},
	{
		"task": "response",
		"correct_response": "f",
		"rt": 564,
		"stimulus": "\n        <p>Kas nurk oli suurem, väiksem või võrdne 90&deg; kraadiga võrreldes võrdlusnurgaga (90&deg;)?</p>\n        <p>Vajutage \"F\", kui nurk oli väiksem, \"J\", kui nurk oli suurem, või tühikuklahvi, kui nurk oli võrdne.</p>\n      ",
		"response": "f",
		"trial_type": "html-keyboard-response",
		"trial_index": 47,
		"plugin_version": "2.1.0",
		"time_elapsed": 72086,
		"correct": true
	},
	{
		"rt": null,
		"stimulus": "\n        <div style=\"text-align: center; font-size: 48px;\">+</div>\n      ",
		"response": null,
		"trial_type": "html-keyboard-response",
		"trial_index": 48,
		"plugin_version": "2.1.0",
		"time_elapsed": 74089
	},
	{
		"task": "fixation",
		"rt": null,
		"stimulus": "img/90.0 kraadi.png",
		"response": null,
		"trial_type": "image-keyboard-response",
		"trial_index": 49,
		"plugin_version": "2.1.0",
		"time_elapsed": 75100
	},
	{
		"task": "interval",
		"rt": null,
		"stimulus": "<div style=\"text-align: center;\"><p></p></div>",
		"response": null,
		"trial_type": "html-keyboard-response",
		"trial_index": 50,
		"plugin_version": "2.1.0",
		"time_elapsed": 77103
	},
	{
		"task": "stimulus",
		"rt": null,
		"stimulus": "img/89.6 kraadi.png",
		"response": null,
		"trial_type": "image-keyboard-response",
		"trial_index": 51,
		"plugin_version": "2.1.0",
		"time_elapsed": 78132
	},
	{
		"task": "response",
		"correct_response": "f",
		"rt": 513,
		"stimulus": "\n        <p>Kas nurk oli suurem, väiksem või võrdne 90&deg; kraadiga võrreldes võrdlusnurgaga (90&deg;)?</p>\n        <p>Vajutage \"F\", kui nurk oli väiksem, \"J\", kui nurk oli suurem, või tühikuklahvi, kui nurk oli võrdne.</p>\n      ",
		"response": "f",
		"trial_type": "html-keyboard-response",
		"trial_index": 52,
		"plugin_version": "2.1.0",
		"time_elapsed": 78647,
		"correct": true
	},
	{
		"rt": null,
		"stimulus": "\n        <div style=\"text-align: center; font-size: 48px;\">+</div>\n      ",
		"response": null,
		"trial_type": "html-keyboard-response",
		"trial_index": 53,
		"plugin_version": "2.1.0",
		"time_elapsed": 80651
	},
	{
		"task": "fixation",
		"rt": null,
		"stimulus": "img/90.0 kraadi.png",
		"response": null,
		"trial_type": "image-keyboard-response",
		"trial_index": 54,
		"plugin_version": "2.1.0",
		"time_elapsed": 81662
	},
	{
		"task": "interval",
		"rt": null,
		"stimulus": "<div style=\"text-align: center;\"><p></p></div>",
		"response": null,
		"trial_type": "html-keyboard-response",
		"trial_index": 55,
		"plugin_version": "2.1.0",
		"time_elapsed": 83666
	},
	{
		"task": "stimulus",
		"rt": null,
		"stimulus": "img/89.8 kraadi.png",
		"response": null,
		"trial_type": "image-keyboard-response",
		"trial_index": 56,
		"plugin_version": "2.1.0",
		"time_elapsed": 84689
	},
	{
		"task": "response",
		"correct_response": "f",
		"rt": 480,
		"stimulus": "\n        <p>Kas nurk oli suurem, väiksem või võrdne 90&deg; kraadiga võrreldes võrdlusnurgaga (90&deg;)?</p>\n        <p>Vajutage \"F\", kui nurk oli väiksem, \"J\", kui nurk oli suurem, või tühikuklahvi, kui nurk oli võrdne.</p>\n      ",
		"response": "f",
		"trial_type": "html-keyboard-response",
		"trial_index": 57,
		"plugin_version": "2.1.0",
		"time_elapsed": 85172,
		"correct": true
	},
	{
		"rt": null,
		"stimulus": "\n        <div style=\"text-align: center; font-size: 48px;\">+</div>\n      ",
		"response": null,
		"trial_type": "html-keyboard-response",
		"trial_index": 58,
		"plugin_version": "2.1.0",
		"time_elapsed": 87176
	},
	{
		"task": "fixation",
		"rt": null,
		"stimulus": "img/90.0 kraadi.png",
		"response": null,
		"trial_type": "image-keyboard-response",
		"trial_index": 59,
		"plugin_version": "2.1.0",
		"time_elapsed": 88187
	},
	{
		"task": "interval",
		"rt": null,
		"stimulus": "<div style=\"text-align: center;\"><p></p></div>",
		"response": null,
		"trial_type": "html-keyboard-response",
		"trial_index": 60,
		"plugin_version": "2.1.0",
		"time_elapsed": 90190
	},
	{
		"task": "stimulus",
		"rt": null,
		"stimulus": "img/89.0 kraadi.png",
		"response": null,
		"trial_type": "image-keyboard-response",
		"trial_index": 61,
		"plugin_version": "2.1.0",
		"time_elapsed": 91225
	},
	{
		"task": "response",
		"correct_response": "f",
		"rt": 320,
		"stimulus": "\n        <p>Kas nurk oli suurem, väiksem või võrdne 90&deg; kraadiga võrreldes võrdlusnurgaga (90&deg;)?</p>\n        <p>Vajutage \"F\", kui nurk oli väiksem, \"J\", kui nurk oli suurem, või tühikuklahvi, kui nurk oli võrdne.</p>\n      ",
		"response": "f",
		"trial_type": "html-keyboard-response",
		"trial_index": 62,
		"plugin_version": "2.1.0",
		"time_elapsed": 91547,
		"correct": true
	},
	{
		"rt": null,
		"stimulus": "\n        <div style=\"text-align: center; font-size: 48px;\">+</div>\n      ",
		"response": null,
		"trial_type": "html-keyboard-response",
		"trial_index": 63,
		"plugin_version": "2.1.0",
		"time_elapsed": 93551
	},
	{
		"rt": 1023,
		"stimulus": "\n          <p>Olete lõpetanud ploki 1 10-st.</p>\n          <p>Vajutage suvalist klahvi, et jätkata järgmise plokiga.</p>\n        ",
		"response": " ",
		"trial_type": "html-keyboard-response",
		"trial_index": 64,
		"plugin_version": "2.1.0",
		"time_elapsed": 94578
	},
	{
		"rt": 1136,
		"stimulus": "\n        <p>Võite teha lühikese pausi.</p>\n        <p>Vajutage suvalist klahvi, et jätkata järgmise plokiga.</p>\n      ",
		"response": " ",
		"trial_type": "html-keyboard-response",
		"trial_index": 65,
		"plugin_version": "2.1.0",
		"time_elapsed": 96718
	},
	{
		"task": "fixation",
		"rt": null,
		"stimulus": "img/90.0 kraadi.png",
		"response": null,
		"trial_type": "image-keyboard-response",
		"trial_index": 66,
		"plugin_version": "2.1.0",
		"time_elapsed": 98730
	},
	{
		"task": "interval",
		"rt": null,
		"stimulus": "<div style=\"text-align: center;\"><p></p></div>",
		"response": null,
		"trial_type": "html-keyboard-response",
		"trial_index": 67,
		"plugin_version": "2.1.0",
		"time_elapsed": 100733
	},
	{
		"task": "stimulus",
		"rt": null,
		"stimulus": "img/89.6 kraadi.png",
		"response": null,
		"trial_type": "image-keyboard-response",
		"trial_index": 68,
		"plugin_version": "2.1.0",
		"time_elapsed": 101743
	},
	{
		"task": "response",
		"correct_response": "f",
		"rt": 3840,
		"stimulus": "\n        <p>Kas nurk oli suurem, väiksem või võrdne 90&deg; kraadiga võrreldes võrdlusnurgaga (90&deg;)?</p>\n        <p>Vajutage \"F\", kui nurk oli väiksem, \"J\", kui nurk oli suurem, või tühikuklahvi, kui nurk oli võrdne.</p>\n      ",
		"response": "f",
		"trial_type": "html-keyboard-response",
		"trial_index": 69,
		"plugin_version": "2.1.0",
		"time_elapsed": 105584,
		"correct": true
	},
	{
		"rt": null,
		"stimulus": "\n        <div style=\"text-align: center; font-size: 48px;\">+</div>\n      ",
		"response": null,
		"trial_type": "html-keyboard-response",
		"trial_index": 70,
		"plugin_version": "2.1.0",
		"time_elapsed": 107587
	},
	{
		"task": "fixation",
		"rt": null,
		"stimulus": "img/90.0 kraadi.png",
		"response": null,
		"trial_type": "image-keyboard-response",
		"trial_index": 71,
		"plugin_version": "2.1.0",
		"time_elapsed": 108597
	},
	{
		"task": "interval",
		"rt": null,
		"stimulus": "<div style=\"text-align: center;\"><p></p></div>",
		"response": null,
		"trial_type": "html-keyboard-response",
		"trial_index": 72,
		"plugin_version": "2.1.0",
		"time_elapsed": 110600
	},
	{
		"task": "stimulus",
		"rt": null,
		"stimulus": "img/89.8 kraadi.png",
		"response": null,
		"trial_type": "image-keyboard-response",
		"trial_index": 73,
		"plugin_version": "2.1.0",
		"time_elapsed": 111610
	},
	{
		"task": "response",
		"correct_response": "f",
		"rt": 1467,
		"stimulus": "\n        <p>Kas nurk oli suurem, väiksem või võrdne 90&deg; kraadiga võrreldes võrdlusnurgaga (90&deg;)?</p>\n        <p>Vajutage \"F\", kui nurk oli väiksem, \"J\", kui nurk oli suurem, või tühikuklahvi, kui nurk oli võrdne.</p>\n      ",
		"response": "j",
		"trial_type": "html-keyboard-response",
		"trial_index": 74,
		"plugin_version": "2.1.0",
		"time_elapsed": 113078,
		"correct": false
	},
	{
		"rt": null,
		"stimulus": "\n        <div style=\"text-align: center; font-size: 48px;\">+</div>\n      ",
		"response": null,
		"trial_type": "html-keyboard-response",
		"trial_index": 75,
		"plugin_version": "2.1.0",
		"time_elapsed": 115082
	},
	{
		"task": "fixation",
		"rt": null,
		"stimulus": "img/90.0 kraadi.png",
		"response": null,
		"trial_type": "image-keyboard-response",
		"trial_index": 76,
		"plugin_version": "2.1.0",
		"time_elapsed": 116092
	},
	{
		"task": "interval",
		"rt": null,
		"stimulus": "<div style=\"text-align: center;\"><p></p></div>",
		"response": null,
		"trial_type": "html-keyboard-response",
		"trial_index": 77,
		"plugin_version": "2.1.0",
		"time_elapsed": 118095
	},
	{
		"task": "stimulus",
		"rt": null,
		"stimulus": "img/89.0 kraadi.png",
		"response": null,
		"trial_type": "image-keyboard-response",
		"trial_index": 78,
		"plugin_version": "2.1.0",
		"time_elapsed": 119105
	},
	{
		"task": "response",
		"correct_response": "f",
		"rt": 64,
		"stimulus": "\n        <p>Kas nurk oli suurem, väiksem või võrdne 90&deg; kraadiga võrreldes võrdlusnurgaga (90&deg;)?</p>\n        <p>Vajutage \"F\", kui nurk oli väiksem, \"J\", kui nurk oli suurem, või tühikuklahvi, kui nurk oli võrdne.</p>\n      ",
		"response": "f",
		"trial_type": "html-keyboard-response",
		"trial_index": 79,
		"plugin_version": "2.1.0",
		"time_elapsed": 119171,
		"correct": true
	},
	{
		"rt": null,
		"stimulus": "\n        <div style=\"text-align: center; font-size: 48px;\">+</div>\n      ",
		"response": null,
		"trial_type": "html-keyboard-response",
		"trial_index": 80,
		"plugin_version": "2.1.0",
		"time_elapsed": 121175
	},
	{
		"task": "fixation",
		"rt": null,
		"stimulus": "img/90.0 kraadi.png",
		"response": null,
		"trial_type": "image-keyboard-response",
		"trial_index": 81,
		"plugin_version": "2.1.0",
		"time_elapsed": 122185
	},
	{
		"task": "interval",
		"rt": null,
		"stimulus": "<div style=\"text-align: center;\"><p></p></div>",
		"response": null,
		"trial_type": "html-keyboard-response",
		"trial_index": 82,
		"plugin_version": "2.1.0",
		"time_elapsed": 124188
	},
	{
		"task": "stimulus",
		"rt": null,
		"stimulus": "img/90.0 kraadi.png",
		"response": null,
		"trial_type": "image-keyboard-response",
		"trial_index": 83,
		"plugin_version": "2.1.0",
		"time_elapsed": 125199
	},
	{
		"task": "response",
		"correct_response": " ",
		"rt": 767,
		"stimulus": "\n        <p>Kas nurk oli suurem, väiksem või võrdne 90&deg; kraadiga võrreldes võrdlusnurgaga (90&deg;)?</p>\n        <p>Vajutage \"F\", kui nurk oli väiksem, \"J\", kui nurk oli suurem, või tühikuklahvi, kui nurk oli võrdne.</p>\n      ",
		"response": "f",
		"trial_type": "html-keyboard-response",
		"trial_index": 84,
		"plugin_version": "2.1.0",
		"time_elapsed": 125968,
		"correct": false
	},
	{
		"rt": null,
		"stimulus": "\n        <div style=\"text-align: center; font-size: 48px;\">+</div>\n      ",
		"response": null,
		"trial_type": "html-keyboard-response",
		"trial_index": 85,
		"plugin_version": "2.1.0",
		"time_elapsed": 127971
	},
	{
		"task": "fixation",
		"rt": null,
		"stimulus": "img/90.0 kraadi.png",
		"response": null,
		"trial_type": "image-keyboard-response",
		"trial_index": 86,
		"plugin_version": "2.1.0",
		"time_elapsed": 128981
	},
	{
		"task": "interval",
		"rt": null,
		"stimulus": "<div style=\"text-align: center;\"><p></p></div>",
		"response": null,
		"trial_type": "html-keyboard-response",
		"trial_index": 87,
		"plugin_version": "2.1.0",
		"time_elapsed": 130984
	},
	{
		"task": "stimulus",
		"rt": null,
		"stimulus": "img/90.6 kraadi.png",
		"response": null,
		"trial_type": "image-keyboard-response",
		"trial_index": 88,
		"plugin_version": "2.1.0",
		"time_elapsed": 132023
	},
	{
		"task": "response",
		"correct_response": "j",
		"rt": 1881,
		"stimulus": "\n        <p>Kas nurk oli suurem, väiksem või võrdne 90&deg; kraadiga võrreldes võrdlusnurgaga (90&deg;)?</p>\n        <p>Vajutage \"F\", kui nurk oli väiksem, \"J\", kui nurk oli suurem, või tühikuklahvi, kui nurk oli võrdne.</p>\n      ",
		"response": "j",
		"trial_type": "html-keyboard-response",
		"trial_index": 89,
		"plugin_version": "2.1.0",
		"time_elapsed": 133906,
		"correct": true
	},
	{
		"rt": null,
		"stimulus": "\n        <div style=\"text-align: center; font-size: 48px;\">+</div>\n      ",
		"response": null,
		"trial_type": "html-keyboard-response",
		"trial_index": 90,
		"plugin_version": "2.1.0",
		"time_elapsed": 135910
	},
	{
		"task": "fixation",
		"rt": null,
		"stimulus": "img/90.0 kraadi.png",
		"response": null,
		"trial_type": "image-keyboard-response",
		"trial_index": 91,
		"plugin_version": "2.1.0",
		"time_elapsed": 136920
	},
	{
		"task": "interval",
		"rt": null,
		"stimulus": "<div style=\"text-align: center;\"><p></p></div>",
		"response": null,
		"trial_type": "html-keyboard-response",
		"trial_index": 92,
		"plugin_version": "2.1.0",
		"time_elapsed": 138923
	},
	{
		"task": "stimulus",
		"rt": null,
		"stimulus": "img/91.0 kraadi.png",
		"response": null,
		"trial_type": "image-keyboard-response",
		"trial_index": 93,
		"plugin_version": "2.1.0",
		"time_elapsed": 139945
	},
	{
		"task": "response",
		"correct_response": "j",
		"rt": 370,
		"stimulus": "\n        <p>Kas nurk oli suurem, väiksem või võrdne 90&deg; kraadiga võrreldes võrdlusnurgaga (90&deg;)?</p>\n        <p>Vajutage \"F\", kui nurk oli väiksem, \"J\", kui nurk oli suurem, või tühikuklahvi, kui nurk oli võrdne.</p>\n      ",
		"response": "j",
		"trial_type": "html-keyboard-response",
		"trial_index": 94,
		"plugin_version": "2.1.0",
		"time_elapsed": 140318,
		"correct": true
	},
	{
		"rt": null,
		"stimulus": "\n        <div style=\"text-align: center; font-size: 48px;\">+</div>\n      ",
		"response": null,
		"trial_type": "html-keyboard-response",
		"trial_index": 95,
		"plugin_version": "2.1.0",
		"time_elapsed": 142321
	},
	{
		"task": "fixation",
		"rt": null,
		"stimulus": "img/90.0 kraadi.png",
		"response": null,
		"trial_type": "image-keyboard-response",
		"trial_index": 96,
		"plugin_version": "2.1.0",
		"time_elapsed": 143332
	},
	{
		"task": "interval",
		"rt": null,
		"stimulus": "<div style=\"text-align: center;\"><p></p></div>",
		"response": null,
		"trial_type": "html-keyboard-response",
		"trial_index": 97,
		"plugin_version": "2.1.0",
		"time_elapsed": 145335
	},
	{
		"task": "stimulus",
		"rt": null,
		"stimulus": "img/90.8 kraadi.png",
		"response": null,
		"trial_type": "image-keyboard-response",
		"trial_index": 98,
		"plugin_version": "2.1.0",
		"time_elapsed": 146375
	},
	{
		"task": "response",
		"correct_response": "j",
		"rt": 761,
		"stimulus": "\n        <p>Kas nurk oli suurem, väiksem või võrdne 90&deg; kraadiga võrreldes võrdlusnurgaga (90&deg;)?</p>\n        <p>Vajutage \"F\", kui nurk oli väiksem, \"J\", kui nurk oli suurem, või tühikuklahvi, kui nurk oli võrdne.</p>\n      ",
		"response": "j",
		"trial_type": "html-keyboard-response",
		"trial_index": 99,
		"plugin_version": "2.1.0",
		"time_elapsed": 147139,
		"correct": true
	},
	{
		"rt": null,
		"stimulus": "\n        <div style=\"text-align: center; font-size: 48px;\">+</div>\n      ",
		"response": null,
		"trial_type": "html-keyboard-response",
		"trial_index": 100,
		"plugin_version": "2.1.0",
		"time_elapsed": 149143
	},
	{
		"task": "fixation",
		"rt": null,
		"stimulus": "img/90.0 kraadi.png",
		"response": null,
		"trial_type": "image-keyboard-response",
		"trial_index": 101,
		"plugin_version": "2.1.0",
		"time_elapsed": 150154
	},
	{
		"task": "interval",
		"rt": null,
		"stimulus": "<div style=\"text-align: center;\"><p></p></div>",
		"response": null,
		"trial_type": "html-keyboard-response",
		"trial_index": 102,
		"plugin_version": "2.1.0",
		"time_elapsed": 152157
	},
	{
		"task": "stimulus",
		"rt": null,
		"stimulus": "img/89.4 kraadi.png",
		"response": null,
		"trial_type": "image-keyboard-response",
		"trial_index": 103,
		"plugin_version": "2.1.0",
		"time_elapsed": 153168
	},
	{
		"task": "response",
		"correct_response": "f",
		"rt": 335,
		"stimulus": "\n        <p>Kas nurk oli suurem, väiksem või võrdne 90&deg; kraadiga võrreldes võrdlusnurgaga (90&deg;)?</p>\n        <p>Vajutage \"F\", kui nurk oli väiksem, \"J\", kui nurk oli suurem, või tühikuklahvi, kui nurk oli võrdne.</p>\n      ",
		"response": " ",
		"trial_type": "html-keyboard-response",
		"trial_index": 104,
		"plugin_version": "2.1.0",
		"time_elapsed": 153505,
		"correct": false
	},
	{
		"rt": null,
		"stimulus": "\n        <div style=\"text-align: center; font-size: 48px;\">+</div>\n      ",
		"response": null,
		"trial_type": "html-keyboard-response",
		"trial_index": 105,
		"plugin_version": "2.1.0",
		"time_elapsed": 155509
	},
	{
		"task": "fixation",
		"rt": null,
		"stimulus": "img/90.0 kraadi.png",
		"response": null,
		"trial_type": "image-keyboard-response",
		"trial_index": 106,
		"plugin_version": "2.1.0",
		"time_elapsed": 156520
	},
	{
		"task": "interval",
		"rt": null,
		"stimulus": "<div style=\"text-align: center;\"><p></p></div>",
		"response": null,
		"trial_type": "html-keyboard-response",
		"trial_index": 107,
		"plugin_version": "2.1.0",
		"time_elapsed": 158523
	},
	{
		"task": "stimulus",
		"rt": null,
		"stimulus": "img/90.2 kraadi.png",
		"response": null,
		"trial_type": "image-keyboard-response",
		"trial_index": 108,
		"plugin_version": "2.1.0",
		"time_elapsed": 159560
	},
	{
		"task": "response",
		"correct_response": "j",
		"rt": 322,
		"stimulus": "\n        <p>Kas nurk oli suurem, väiksem või võrdne 90&deg; kraadiga võrreldes võrdlusnurgaga (90&deg;)?</p>\n        <p>Vajutage \"F\", kui nurk oli väiksem, \"J\", kui nurk oli suurem, või tühikuklahvi, kui nurk oli võrdne.</p>\n      ",
		"response": "j",
		"trial_type": "html-keyboard-response",
		"trial_index": 109,
		"plugin_version": "2.1.0",
		"time_elapsed": 159884,
		"correct": true
	},
	{
		"rt": null,
		"stimulus": "\n        <div style=\"text-align: center; font-size: 48px;\">+</div>\n      ",
		"response": null,
		"trial_type": "html-keyboard-response",
		"trial_index": 110,
		"plugin_version": "2.1.0",
		"time_elapsed": 161888
	},
	{
		"task": "fixation",
		"rt": null,
		"stimulus": "img/90.0 kraadi.png",
		"response": null,
		"trial_type": "image-keyboard-response",
		"trial_index": 111,
		"plugin_version": "2.1.0",
		"time_elapsed": 162898
	},
	{
		"task": "interval",
		"rt": null,
		"stimulus": "<div style=\"text-align: center;\"><p></p></div>",
		"response": null,
		"trial_type": "html-keyboard-response",
		"trial_index": 112,
		"plugin_version": "2.1.0",
		"time_elapsed": 164901
	},
	{
		"task": "stimulus",
		"rt": null,
		"stimulus": "img/90.4 kraadi.png",
		"response": null,
		"trial_type": "image-keyboard-response",
		"trial_index": 113,
		"plugin_version": "2.1.0",
		"time_elapsed": 165934
	},
	{
		"task": "response",
		"correct_response": "j",
		"rt": 438,
		"stimulus": "\n        <p>Kas nurk oli suurem, väiksem või võrdne 90&deg; kraadiga võrreldes võrdlusnurgaga (90&deg;)?</p>\n        <p>Vajutage \"F\", kui nurk oli väiksem, \"J\", kui nurk oli suurem, või tühikuklahvi, kui nurk oli võrdne.</p>\n      ",
		"response": " ",
		"trial_type": "html-keyboard-response",
		"trial_index": 114,
		"plugin_version": "2.1.0",
		"time_elapsed": 166374,
		"correct": false
	},
	{
		"rt": null,
		"stimulus": "\n        <div style=\"text-align: center; font-size: 48px;\">+</div>\n      ",
		"response": null,
		"trial_type": "html-keyboard-response",
		"trial_index": 115,
		"plugin_version": "2.1.0",
		"time_elapsed": 168378
	},
	{
		"task": "fixation",
		"rt": null,
		"stimulus": "img/90.0 kraadi.png",
		"response": null,
		"trial_type": "image-keyboard-response",
		"trial_index": 116,
		"plugin_version": "2.1.0",
		"time_elapsed": 169389
	},
	{
		"task": "interval",
		"rt": null,
		"stimulus": "<div style=\"text-align: center;\"><p></p></div>",
		"response": null,
		"trial_type": "html-keyboard-response",
		"trial_index": 117,
		"plugin_version": "2.1.0",
		"time_elapsed": 171392
	},
	{
		"task": "stimulus",
		"rt": null,
		"stimulus": "img/89.2 kraadi.png",
		"response": null,
		"trial_type": "image-keyboard-response",
		"trial_index": 118,
		"plugin_version": "2.1.0",
		"time_elapsed": 172426
	},
	{
		"task": "response",
		"correct_response": "f",
		"rt": 934,
		"stimulus": "\n        <p>Kas nurk oli suurem, väiksem või võrdne 90&deg; kraadiga võrreldes võrdlusnurgaga (90&deg;)?</p>\n        <p>Vajutage \"F\", kui nurk oli väiksem, \"J\", kui nurk oli suurem, või tühikuklahvi, kui nurk oli võrdne.</p>\n      ",
		"response": "f",
		"trial_type": "html-keyboard-response",
		"trial_index": 119,
		"plugin_version": "2.1.0",
		"time_elapsed": 173363,
		"correct": true
	},
	{
		"rt": null,
		"stimulus": "\n        <div style=\"text-align: center; font-size: 48px;\">+</div>\n      ",
		"response": null,
		"trial_type": "html-keyboard-response",
		"trial_index": 120,
		"plugin_version": "2.1.0",
		"time_elapsed": 175367
	},
	{
		"rt": 709,
		"stimulus": "\n          <p>Olete lõpetanud ploki 2 10-st.</p>\n          <p>Vajutage suvalist klahvi, et jätkata järgmise plokiga.</p>\n        ",
		"response": " ",
		"trial_type": "html-keyboard-response",
		"trial_index": 121,
		"plugin_version": "2.1.0",
		"time_elapsed": 176080
	},
	{
		"rt": 892,
		"stimulus": "\n        <p>Võite teha lühikese pausi.</p>\n        <p>Vajutage suvalist klahvi, et jätkata järgmise plokiga.</p>\n      ",
		"response": " ",
		"trial_type": "html-keyboard-response",
		"trial_index": 122,
		"plugin_version": "2.1.0",
		"time_elapsed": 177975
	},
	{
		"task": "fixation",
		"rt": null,
		"stimulus": "img/90.0 kraadi.png",
		"response": null,
		"trial_type": "image-keyboard-response",
		"trial_index": 123,
		"plugin_version": "2.1.0",
		"time_elapsed": 179987
	},
	{
		"task": "interval",
		"rt": null,
		"stimulus": "<div style=\"text-align: center;\"><p></p></div>",
		"response": null,
		"trial_type": "html-keyboard-response",
		"trial_index": 124,
		"plugin_version": "2.1.0",
		"time_elapsed": 181990
	},
	{
		"task": "stimulus",
		"rt": null,
		"stimulus": "img/89.2 kraadi.png",
		"response": null,
		"trial_type": "image-keyboard-response",
		"trial_index": 125,
		"plugin_version": "2.1.0",
		"time_elapsed": 183000
	},
	{
		"task": "response",
		"correct_response": "f",
		"rt": 272,
		"stimulus": "\n        <p>Kas nurk oli suurem, väiksem või võrdne 90&deg; kraadiga võrreldes võrdlusnurgaga (90&deg;)?</p>\n        <p>Vajutage \"F\", kui nurk oli väiksem, \"J\", kui nurk oli suurem, või tühikuklahvi, kui nurk oli võrdne.</p>\n      ",
		"response": "f",
		"trial_type": "html-keyboard-response",
		"trial_index": 126,
		"plugin_version": "2.1.0",
		"time_elapsed": 183275,
		"correct": true
	},
	{
		"rt": null,
		"stimulus": "\n        <div style=\"text-align: center; font-size: 48px;\">+</div>\n      ",
		"response": null,
		"trial_type": "html-keyboard-response",
		"trial_index": 127,
		"plugin_version": "2.1.0",
		"time_elapsed": 185278
	},
	{
		"task": "fixation",
		"rt": null,
		"stimulus": "img/90.0 kraadi.png",
		"response": null,
		"trial_type": "image-keyboard-response",
		"trial_index": 128,
		"plugin_version": "2.1.0",
		"time_elapsed": 186288
	},
	{
		"task": "interval",
		"rt": null,
		"stimulus": "<div style=\"text-align: center;\"><p></p></div>",
		"response": null,
		"trial_type": "html-keyboard-response",
		"trial_index": 129,
		"plugin_version": "2.1.0",
		"time_elapsed": 188291
	},
	{
		"task": "stimulus",
		"rt": null,
		"stimulus": "img/89.4 kraadi.png",
		"response": null,
		"trial_type": "image-keyboard-response",
		"trial_index": 130,
		"plugin_version": "2.1.0",
		"time_elapsed": 189301
	},
	{
		"task": "response",
		"correct_response": "f",
		"rt": 748,
		"stimulus": "\n        <p>Kas nurk oli suurem, väiksem või võrdne 90&deg; kraadiga võrreldes võrdlusnurgaga (90&deg;)?</p>\n        <p>Vajutage \"F\", kui nurk oli väiksem, \"J\", kui nurk oli suurem, või tühikuklahvi, kui nurk oli võrdne.</p>\n      ",
		"response": " ",
		"trial_type": "html-keyboard-response",
		"trial_index": 131,
		"plugin_version": "2.1.0",
		"time_elapsed": 190052,
		"correct": false
	},
	{
		"rt": null,
		"stimulus": "\n        <div style=\"text-align: center; font-size: 48px;\">+</div>\n      ",
		"response": null,
		"trial_type": "html-keyboard-response",
		"trial_index": 132,
		"plugin_version": "2.1.0",
		"time_elapsed": 192055
	},
	{
		"task": "fixation",
		"rt": null,
		"stimulus": "img/90.0 kraadi.png",
		"response": null,
		"trial_type": "image-keyboard-response",
		"trial_index": 133,
		"plugin_version": "2.1.0",
		"time_elapsed": 193065
	},
	{
		"task": "interval",
		"rt": null,
		"stimulus": "<div style=\"text-align: center;\"><p></p></div>",
		"response": null,
		"trial_type": "html-keyboard-response",
		"trial_index": 134,
		"plugin_version": "2.1.0",
		"time_elapsed": 195068
	},
	{
		"task": "stimulus",
		"rt": null,
		"stimulus": "img/90.4 kraadi.png",
		"response": null,
		"trial_type": "image-keyboard-response",
		"trial_index": 135,
		"plugin_version": "2.1.0",
		"time_elapsed": 196078
	},
	{
		"task": "response",
		"correct_response": "j",
		"rt": 607,
		"stimulus": "\n        <p>Kas nurk oli suurem, väiksem või võrdne 90&deg; kraadiga võrreldes võrdlusnurgaga (90&deg;)?</p>\n        <p>Vajutage \"F\", kui nurk oli väiksem, \"J\", kui nurk oli suurem, või tühikuklahvi, kui nurk oli võrdne.</p>\n      ",
		"response": " ",
		"trial_type": "html-keyboard-response",
		"trial_index": 136,
		"plugin_version": "2.1.0",
		"time_elapsed": 196687,
		"correct": false
	},
	{
		"rt": null,
		"stimulus": "\n        <div style=\"text-align: center; font-size: 48px;\">+</div>\n      ",
		"response": null,
		"trial_type": "html-keyboard-response",
		"trial_index": 137,
		"plugin_version": "2.1.0",
		"time_elapsed": 198690
	},
	{
		"task": "fixation",
		"rt": null,
		"stimulus": "img/90.0 kraadi.png",
		"response": null,
		"trial_type": "image-keyboard-response",
		"trial_index": 138,
		"plugin_version": "2.1.0",
		"time_elapsed": 199700
	},
	{
		"task": "interval",
		"rt": null,
		"stimulus": "<div style=\"text-align: center;\"><p></p></div>",
		"response": null,
		"trial_type": "html-keyboard-response",
		"trial_index": 139,
		"plugin_version": "2.1.0",
		"time_elapsed": 201704
	},
	{
		"task": "stimulus",
		"rt": null,
		"stimulus": "img/89.6 kraadi.png",
		"response": null,
		"trial_type": "image-keyboard-response",
		"trial_index": 140,
		"plugin_version": "2.1.0",
		"time_elapsed": 202739
	},
	{
		"task": "response",
		"correct_response": "f",
		"rt": 252,
		"stimulus": "\n        <p>Kas nurk oli suurem, väiksem või võrdne 90&deg; kraadiga võrreldes võrdlusnurgaga (90&deg;)?</p>\n        <p>Vajutage \"F\", kui nurk oli väiksem, \"J\", kui nurk oli suurem, või tühikuklahvi, kui nurk oli võrdne.</p>\n      ",
		"response": "f",
		"trial_type": "html-keyboard-response",
		"trial_index": 141,
		"plugin_version": "2.1.0",
		"time_elapsed": 202994,
		"correct": true
	},
	{
		"rt": null,
		"stimulus": "\n        <div style=\"text-align: center; font-size: 48px;\">+</div>\n      ",
		"response": null,
		"trial_type": "html-keyboard-response",
		"trial_index": 142,
		"plugin_version": "2.1.0",
		"time_elapsed": 204997
	},
	{
		"task": "fixation",
		"rt": null,
		"stimulus": "img/90.0 kraadi.png",
		"response": null,
		"trial_type": "image-keyboard-response",
		"trial_index": 143,
		"plugin_version": "2.1.0",
		"time_elapsed": 206008
	},
	{
		"task": "interval",
		"rt": null,
		"stimulus": "<div style=\"text-align: center;\"><p></p></div>",
		"response": null,
		"trial_type": "html-keyboard-response",
		"trial_index": 144,
		"plugin_version": "2.1.0",
		"time_elapsed": 208012
	},
	{
		"task": "stimulus",
		"rt": null,
		"stimulus": "img/90.2 kraadi.png",
		"response": null,
		"trial_type": "image-keyboard-response",
		"trial_index": 145,
		"plugin_version": "2.1.0",
		"time_elapsed": 209022
	},
	{
		"task": "response",
		"correct_response": "j",
		"rt": 567,
		"stimulus": "\n        <p>Kas nurk oli suurem, väiksem või võrdne 90&deg; kraadiga võrreldes võrdlusnurgaga (90&deg;)?</p>\n        <p>Vajutage \"F\", kui nurk oli väiksem, \"J\", kui nurk oli suurem, või tühikuklahvi, kui nurk oli võrdne.</p>\n      ",
		"response": " ",
		"trial_type": "html-keyboard-response",
		"trial_index": 146,
		"plugin_version": "2.1.0",
		"time_elapsed": 209591,
		"correct": false
	},
	{
		"rt": null,
		"stimulus": "\n        <div style=\"text-align: center; font-size: 48px;\">+</div>\n      ",
		"response": null,
		"trial_type": "html-keyboard-response",
		"trial_index": 147,
		"plugin_version": "2.1.0",
		"time_elapsed": 211595
	},
	{
		"task": "fixation",
		"rt": null,
		"stimulus": "img/90.0 kraadi.png",
		"response": null,
		"trial_type": "image-keyboard-response",
		"trial_index": 148,
		"plugin_version": "2.1.0",
		"time_elapsed": 212604
	},
	{
		"task": "interval",
		"rt": null,
		"stimulus": "<div style=\"text-align: center;\"><p></p></div>",
		"response": null,
		"trial_type": "html-keyboard-response",
		"trial_index": 149,
		"plugin_version": "2.1.0",
		"time_elapsed": 214608
	},
	{
		"task": "stimulus",
		"rt": null,
		"stimulus": "img/89.0 kraadi.png",
		"response": null,
		"trial_type": "image-keyboard-response",
		"trial_index": 150,
		"plugin_version": "2.1.0",
		"time_elapsed": 215642
	},
	{
		"task": "response",
		"correct_response": "f",
		"rt": 49,
		"stimulus": "\n        <p>Kas nurk oli suurem, väiksem või võrdne 90&deg; kraadiga võrreldes võrdlusnurgaga (90&deg;)?</p>\n        <p>Vajutage \"F\", kui nurk oli väiksem, \"J\", kui nurk oli suurem, või tühikuklahvi, kui nurk oli võrdne.</p>\n      ",
		"response": "f",
		"trial_type": "html-keyboard-response",
		"trial_index": 151,
		"plugin_version": "2.1.0",
		"time_elapsed": 215692,
		"correct": true
	},
	{
		"rt": null,
		"stimulus": "\n        <div style=\"text-align: center; font-size: 48px;\">+</div>\n      ",
		"response": null,
		"trial_type": "html-keyboard-response",
		"trial_index": 152,
		"plugin_version": "2.1.0",
		"time_elapsed": 217695
	},
	{
		"task": "fixation",
		"rt": null,
		"stimulus": "img/90.0 kraadi.png",
		"response": null,
		"trial_type": "image-keyboard-response",
		"trial_index": 153,
		"plugin_version": "2.1.0",
		"time_elapsed": 218705
	},
	{
		"task": "interval",
		"rt": null,
		"stimulus": "<div style=\"text-align: center;\"><p></p></div>",
		"response": null,
		"trial_type": "html-keyboard-response",
		"trial_index": 154,
		"plugin_version": "2.1.0",
		"time_elapsed": 220708
	},
	{
		"task": "stimulus",
		"rt": null,
		"stimulus": "img/90.0 kraadi.png",
		"response": null,
		"trial_type": "image-keyboard-response",
		"trial_index": 155,
		"plugin_version": "2.1.0",
		"time_elapsed": 221718
	},
	{
		"task": "response",
		"correct_response": " ",
		"rt": 2283,
		"stimulus": "\n        <p>Kas nurk oli suurem, väiksem või võrdne 90&deg; kraadiga võrreldes võrdlusnurgaga (90&deg;)?</p>\n        <p>Vajutage \"F\", kui nurk oli väiksem, \"J\", kui nurk oli suurem, või tühikuklahvi, kui nurk oli võrdne.</p>\n      ",
		"response": "f",
		"trial_type": "html-keyboard-response",
		"trial_index": 156,
		"plugin_version": "2.1.0",
		"time_elapsed": 224002,
		"correct": false
	},
	{
		"rt": null,
		"stimulus": "\n        <div style=\"text-align: center; font-size: 48px;\">+</div>\n      ",
		"response": null,
		"trial_type": "html-keyboard-response",
		"trial_index": 157,
		"plugin_version": "2.1.0",
		"time_elapsed": 226006
	},
	{
		"task": "fixation",
		"rt": null,
		"stimulus": "img/90.0 kraadi.png",
		"response": null,
		"trial_type": "image-keyboard-response",
		"trial_index": 158,
		"plugin_version": "2.1.0",
		"time_elapsed": 227018
	},
	{
		"task": "interval",
		"rt": null,
		"stimulus": "<div style=\"text-align: center;\"><p></p></div>",
		"response": null,
		"trial_type": "html-keyboard-response",
		"trial_index": 159,
		"plugin_version": "2.1.0",
		"time_elapsed": 229022
	},
	{
		"task": "stimulus",
		"rt": null,
		"stimulus": "img/90.6 kraadi.png",
		"response": null,
		"trial_type": "image-keyboard-response",
		"trial_index": 160,
		"plugin_version": "2.1.0",
		"time_elapsed": 230050
	},
	{
		"task": "response",
		"correct_response": "j",
		"rt": 698,
		"stimulus": "\n        <p>Kas nurk oli suurem, väiksem või võrdne 90&deg; kraadiga võrreldes võrdlusnurgaga (90&deg;)?</p>\n        <p>Vajutage \"F\", kui nurk oli väiksem, \"J\", kui nurk oli suurem, või tühikuklahvi, kui nurk oli võrdne.</p>\n      ",
		"response": "j",
		"trial_type": "html-keyboard-response",
		"trial_index": 161,
		"plugin_version": "2.1.0",
		"time_elapsed": 230750,
		"correct": true
	},
	{
		"rt": null,
		"stimulus": "\n        <div style=\"text-align: center; font-size: 48px;\">+</div>\n      ",
		"response": null,
		"trial_type": "html-keyboard-response",
		"trial_index": 162,
		"plugin_version": "2.1.0",
		"time_elapsed": 232754
	},
	{
		"task": "fixation",
		"rt": null,
		"stimulus": "img/90.0 kraadi.png",
		"response": null,
		"trial_type": "image-keyboard-response",
		"trial_index": 163,
		"plugin_version": "2.1.0",
		"time_elapsed": 233764
	},
	{
		"task": "interval",
		"rt": null,
		"stimulus": "<div style=\"text-align: center;\"><p></p></div>",
		"response": null,
		"trial_type": "html-keyboard-response",
		"trial_index": 164,
		"plugin_version": "2.1.0",
		"time_elapsed": 235768
	},
	{
		"task": "stimulus",
		"rt": null,
		"stimulus": "img/90.8 kraadi.png",
		"response": null,
		"trial_type": "image-keyboard-response",
		"trial_index": 165,
		"plugin_version": "2.1.0",
		"time_elapsed": 236804
	},
	{
		"task": "response",
		"correct_response": "j",
		"rt": 471,
		"stimulus": "\n        <p>Kas nurk oli suurem, väiksem või võrdne 90&deg; kraadiga võrreldes võrdlusnurgaga (90&deg;)?</p>\n        <p>Vajutage \"F\", kui nurk oli väiksem, \"J\", kui nurk oli suurem, või tühikuklahvi, kui nurk oli võrdne.</p>\n      ",
		"response": "j",
		"trial_type": "html-keyboard-response",
		"trial_index": 166,
		"plugin_version": "2.1.0",
		"time_elapsed": 237277,
		"correct": true
	},
	{
		"rt": null,
		"stimulus": "\n        <div style=\"text-align: center; font-size: 48px;\">+</div>\n      ",
		"response": null,
		"trial_type": "html-keyboard-response",
		"trial_index": 167,
		"plugin_version": "2.1.0",
		"time_elapsed": 239280
	},
	{
		"task": "fixation",
		"rt": null,
		"stimulus": "img/90.0 kraadi.png",
		"response": null,
		"trial_type": "image-keyboard-response",
		"trial_index": 168,
		"plugin_version": "2.1.0",
		"time_elapsed": 240290
	},
	{
		"task": "interval",
		"rt": null,
		"stimulus": "<div style=\"text-align: center;\"><p></p></div>",
		"response": null,
		"trial_type": "html-keyboard-response",
		"trial_index": 169,
		"plugin_version": "2.1.0",
		"time_elapsed": 242293
	},
	{
		"task": "stimulus",
		"rt": null,
		"stimulus": "img/89.8 kraadi.png",
		"response": null,
		"trial_type": "image-keyboard-response",
		"trial_index": 170,
		"plugin_version": "2.1.0",
		"time_elapsed": 243314
	},
	{
		"task": "response",
		"correct_response": "f",
		"rt": 638,
		"stimulus": "\n        <p>Kas nurk oli suurem, väiksem või võrdne 90&deg; kraadiga võrreldes võrdlusnurgaga (90&deg;)?</p>\n        <p>Vajutage \"F\", kui nurk oli väiksem, \"J\", kui nurk oli suurem, või tühikuklahvi, kui nurk oli võrdne.</p>\n      ",
		"response": "j",
		"trial_type": "html-keyboard-response",
		"trial_index": 171,
		"plugin_version": "2.1.0",
		"time_elapsed": 243954,
		"correct": false
	},
	{
		"rt": null,
		"stimulus": "\n        <div style=\"text-align: center; font-size: 48px;\">+</div>\n      ",
		"response": null,
		"trial_type": "html-keyboard-response",
		"trial_index": 172,
		"plugin_version": "2.1.0",
		"time_elapsed": 245957
	},
	{
		"task": "fixation",
		"rt": null,
		"stimulus": "img/90.0 kraadi.png",
		"response": null,
		"trial_type": "image-keyboard-response",
		"trial_index": 173,
		"plugin_version": "2.1.0",
		"time_elapsed": 246967
	},
	{
		"task": "interval",
		"rt": null,
		"stimulus": "<div style=\"text-align: center;\"><p></p></div>",
		"response": null,
		"trial_type": "html-keyboard-response",
		"trial_index": 174,
		"plugin_version": "2.1.0",
		"time_elapsed": 248970
	},
	{
		"task": "stimulus",
		"rt": null,
		"stimulus": "img/91.0 kraadi.png",
		"response": null,
		"trial_type": "image-keyboard-response",
		"trial_index": 175,
		"plugin_version": "2.1.0",
		"time_elapsed": 250007
	},
	{
		"task": "response",
		"correct_response": "j",
		"rt": 277,
		"stimulus": "\n        <p>Kas nurk oli suurem, väiksem või võrdne 90&deg; kraadiga võrreldes võrdlusnurgaga (90&deg;)?</p>\n        <p>Vajutage \"F\", kui nurk oli väiksem, \"J\", kui nurk oli suurem, või tühikuklahvi, kui nurk oli võrdne.</p>\n      ",
		"response": "j",
		"trial_type": "html-keyboard-response",
		"trial_index": 176,
		"plugin_version": "2.1.0",
		"time_elapsed": 250286,
		"correct": true
	},
	{
		"rt": null,
		"stimulus": "\n        <div style=\"text-align: center; font-size: 48px;\">+</div>\n      ",
		"response": null,
		"trial_type": "html-keyboard-response",
		"trial_index": 177,
		"plugin_version": "2.1.0",
		"time_elapsed": 252289
	},
	{
		"rt": 975,
		"stimulus": "\n          <p>Olete lõpetanud ploki 3 10-st.</p>\n          <p>Vajutage suvalist klahvi, et jätkata järgmise plokiga.</p>\n        ",
		"response": " ",
		"trial_type": "html-keyboard-response",
		"trial_index": 178,
		"plugin_version": "2.1.0",
		"time_elapsed": 253267
	},
	{
		"rt": 2125,
		"stimulus": "\n        <p>Võite teha lühikese pausi.</p>\n        <p>Vajutage suvalist klahvi, et jätkata järgmise plokiga.</p>\n      ",
		"response": " ",
		"trial_type": "html-keyboard-response",
		"trial_index": 179,
		"plugin_version": "2.1.0",
		"time_elapsed": 256396
	},
	{
		"task": "fixation",
		"rt": null,
		"stimulus": "img/90.0 kraadi.png",
		"response": null,
		"trial_type": "image-keyboard-response",
		"trial_index": 180,
		"plugin_version": "2.1.0",
		"time_elapsed": 258408
	},
	{
		"task": "interval",
		"rt": null,
		"stimulus": "<div style=\"text-align: center;\"><p></p></div>",
		"response": null,
		"trial_type": "html-keyboard-response",
		"trial_index": 181,
		"plugin_version": "2.1.0",
		"time_elapsed": 260412
	},
	{
		"task": "stimulus",
		"rt": null,
		"stimulus": "img/89.0 kraadi.png",
		"response": null,
		"trial_type": "image-keyboard-response",
		"trial_index": 182,
		"plugin_version": "2.1.0",
		"time_elapsed": 261422
	},
	{
		"task": "response",
		"correct_response": "f",
		"rt": 1084,
		"stimulus": "\n        <p>Kas nurk oli suurem, väiksem või võrdne 90&deg; kraadiga võrreldes võrdlusnurgaga (90&deg;)?</p>\n        <p>Vajutage \"F\", kui nurk oli väiksem, \"J\", kui nurk oli suurem, või tühikuklahvi, kui nurk oli võrdne.</p>\n      ",
		"response": "f",
		"trial_type": "html-keyboard-response",
		"trial_index": 183,
		"plugin_version": "2.1.0",
		"time_elapsed": 262508,
		"correct": true
	},
	{
		"rt": null,
		"stimulus": "\n        <div style=\"text-align: center; font-size: 48px;\">+</div>\n      ",
		"response": null,
		"trial_type": "html-keyboard-response",
		"trial_index": 184,
		"plugin_version": "2.1.0",
		"time_elapsed": 264511
	},
	{
		"task": "fixation",
		"rt": null,
		"stimulus": "img/90.0 kraadi.png",
		"response": null,
		"trial_type": "image-keyboard-response",
		"trial_index": 185,
		"plugin_version": "2.1.0",
		"time_elapsed": 265522
	},
	{
		"task": "interval",
		"rt": null,
		"stimulus": "<div style=\"text-align: center;\"><p></p></div>",
		"response": null,
		"trial_type": "html-keyboard-response",
		"trial_index": 186,
		"plugin_version": "2.1.0",
		"time_elapsed": 267525
	},
	{
		"task": "stimulus",
		"rt": null,
		"stimulus": "img/90.8 kraadi.png",
		"response": null,
		"trial_type": "image-keyboard-response",
		"trial_index": 187,
		"plugin_version": "2.1.0",
		"time_elapsed": 268536
	},
	{
		"task": "response",
		"correct_response": "j",
		"rt": 1550,
		"stimulus": "\n        <p>Kas nurk oli suurem, väiksem või võrdne 90&deg; kraadiga võrreldes võrdlusnurgaga (90&deg;)?</p>\n        <p>Vajutage \"F\", kui nurk oli väiksem, \"J\", kui nurk oli suurem, või tühikuklahvi, kui nurk oli võrdne.</p>\n      ",
		"response": " ",
		"trial_type": "html-keyboard-response",
		"trial_index": 188,
		"plugin_version": "2.1.0",
		"time_elapsed": 270087,
		"correct": false
	},
	{
		"rt": null,
		"stimulus": "\n        <div style=\"text-align: center; font-size: 48px;\">+</div>\n      ",
		"response": null,
		"trial_type": "html-keyboard-response",
		"trial_index": 189,
		"plugin_version": "2.1.0",
		"time_elapsed": 272090
	},
	{
		"task": "fixation",
		"rt": null,
		"stimulus": "img/90.0 kraadi.png",
		"response": null,
		"trial_type": "image-keyboard-response",
		"trial_index": 190,
		"plugin_version": "2.1.0",
		"time_elapsed": 273100
	},
	{
		"task": "interval",
		"rt": null,
		"stimulus": "<div style=\"text-align: center;\"><p></p></div>",
		"response": null,
		"trial_type": "html-keyboard-response",
		"trial_index": 191,
		"plugin_version": "2.1.0",
		"time_elapsed": 275103
	},
	{
		"task": "stimulus",
		"rt": null,
		"stimulus": "img/89.8 kraadi.png",
		"response": null,
		"trial_type": "image-keyboard-response",
		"trial_index": 192,
		"plugin_version": "2.1.0",
		"time_elapsed": 276113
	},
	{
		"task": "response",
		"correct_response": "f",
		"rt": 631,
		"stimulus": "\n        <p>Kas nurk oli suurem, väiksem või võrdne 90&deg; kraadiga võrreldes võrdlusnurgaga (90&deg;)?</p>\n        <p>Vajutage \"F\", kui nurk oli väiksem, \"J\", kui nurk oli suurem, või tühikuklahvi, kui nurk oli võrdne.</p>\n      ",
		"response": " ",
		"trial_type": "html-keyboard-response",
		"trial_index": 193,
		"plugin_version": "2.1.0",
		"time_elapsed": 276747,
		"correct": false
	},
	{
		"rt": null,
		"stimulus": "\n        <div style=\"text-align: center; font-size: 48px;\">+</div>\n      ",
		"response": null,
		"trial_type": "html-keyboard-response",
		"trial_index": 194,
		"plugin_version": "2.1.0",
		"time_elapsed": 278750
	},
	{
		"task": "fixation",
		"rt": null,
		"stimulus": "img/90.0 kraadi.png",
		"response": null,
		"trial_type": "image-keyboard-response",
		"trial_index": 195,
		"plugin_version": "2.1.0",
		"time_elapsed": 279761
	},
	{
		"task": "interval",
		"rt": null,
		"stimulus": "<div style=\"text-align: center;\"><p></p></div>",
		"response": null,
		"trial_type": "html-keyboard-response",
		"trial_index": 196,
		"plugin_version": "2.1.0",
		"time_elapsed": 281765
	},
	{
		"task": "stimulus",
		"rt": null,
		"stimulus": "img/89.6 kraadi.png",
		"response": null,
		"trial_type": "image-keyboard-response",
		"trial_index": 197,
		"plugin_version": "2.1.0",
		"time_elapsed": 282774
	},
	{
		"task": "response",
		"correct_response": "f",
		"rt": 1432,
		"stimulus": "\n        <p>Kas nurk oli suurem, väiksem või võrdne 90&deg; kraadiga võrreldes võrdlusnurgaga (90&deg;)?</p>\n        <p>Vajutage \"F\", kui nurk oli väiksem, \"J\", kui nurk oli suurem, või tühikuklahvi, kui nurk oli võrdne.</p>\n      ",
		"response": "f",
		"trial_type": "html-keyboard-response",
		"trial_index": 198,
		"plugin_version": "2.1.0",
		"time_elapsed": 284209,
		"correct": true
	},
	{
		"rt": null,
		"stimulus": "\n        <div style=\"text-align: center; font-size: 48px;\">+</div>\n      ",
		"response": null,
		"trial_type": "html-keyboard-response",
		"trial_index": 199,
		"plugin_version": "2.1.0",
		"time_elapsed": 286212
	},
	{
		"task": "fixation",
		"rt": null,
		"stimulus": "img/90.0 kraadi.png",
		"response": null,
		"trial_type": "image-keyboard-response",
		"trial_index": 200,
		"plugin_version": "2.1.0",
		"time_elapsed": 287222
	},
	{
		"task": "interval",
		"rt": null,
		"stimulus": "<div style=\"text-align: center;\"><p></p></div>",
		"response": null,
		"trial_type": "html-keyboard-response",
		"trial_index": 201,
		"plugin_version": "2.1.0",
		"time_elapsed": 289225
	},
	{
		"task": "stimulus",
		"rt": null,
		"stimulus": "img/90.2 kraadi.png",
		"response": null,
		"trial_type": "image-keyboard-response",
		"trial_index": 202,
		"plugin_version": "2.1.0",
		"time_elapsed": 290235
	},
	{
		"task": "response",
		"correct_response": "j",
		"rt": 2488,
		"stimulus": "\n        <p>Kas nurk oli suurem, väiksem või võrdne 90&deg; kraadiga võrreldes võrdlusnurgaga (90&deg;)?</p>\n        <p>Vajutage \"F\", kui nurk oli väiksem, \"J\", kui nurk oli suurem, või tühikuklahvi, kui nurk oli võrdne.</p>\n      ",
		"response": "f",
		"trial_type": "html-keyboard-response",
		"trial_index": 203,
		"plugin_version": "2.1.0",
		"time_elapsed": 292726,
		"correct": false
	},
	{
		"rt": null,
		"stimulus": "\n        <div style=\"text-align: center; font-size: 48px;\">+</div>\n      ",
		"response": null,
		"trial_type": "html-keyboard-response",
		"trial_index": 204,
		"plugin_version": "2.1.0",
		"time_elapsed": 294729
	},
	{
		"task": "fixation",
		"rt": null,
		"stimulus": "img/90.0 kraadi.png",
		"response": null,
		"trial_type": "image-keyboard-response",
		"trial_index": 205,
		"plugin_version": "2.1.0",
		"time_elapsed": 295739
	},
	{
		"task": "interval",
		"rt": null,
		"stimulus": "<div style=\"text-align: center;\"><p></p></div>",
		"response": null,
		"trial_type": "html-keyboard-response",
		"trial_index": 206,
		"plugin_version": "2.1.0",
		"time_elapsed": 297742
	},
	{
		"task": "stimulus",
		"rt": null,
		"stimulus": "img/89.4 kraadi.png",
		"response": null,
		"trial_type": "image-keyboard-response",
		"trial_index": 207,
		"plugin_version": "2.1.0",
		"time_elapsed": 298776
	},
	{
		"task": "response",
		"correct_response": "f",
		"rt": 855,
		"stimulus": "\n        <p>Kas nurk oli suurem, väiksem või võrdne 90&deg; kraadiga võrreldes võrdlusnurgaga (90&deg;)?</p>\n        <p>Vajutage \"F\", kui nurk oli väiksem, \"J\", kui nurk oli suurem, või tühikuklahvi, kui nurk oli võrdne.</p>\n      ",
		"response": "f",
		"trial_type": "html-keyboard-response",
		"trial_index": 208,
		"plugin_version": "2.1.0",
		"time_elapsed": 299633,
		"correct": true
	},
	{
		"rt": null,
		"stimulus": "\n        <div style=\"text-align: center; font-size: 48px;\">+</div>\n      ",
		"response": null,
		"trial_type": "html-keyboard-response",
		"trial_index": 209,
		"plugin_version": "2.1.0",
		"time_elapsed": 301636
	},
	{
		"task": "fixation",
		"rt": null,
		"stimulus": "img/90.0 kraadi.png",
		"response": null,
		"trial_type": "image-keyboard-response",
		"trial_index": 210,
		"plugin_version": "2.1.0",
		"time_elapsed": 302646
	},
	{
		"task": "interval",
		"rt": null,
		"stimulus": "<div style=\"text-align: center;\"><p></p></div>",
		"response": null,
		"trial_type": "html-keyboard-response",
		"trial_index": 211,
		"plugin_version": "2.1.0",
		"time_elapsed": 304649
	},
	{
		"task": "stimulus",
		"rt": null,
		"stimulus": "img/90.6 kraadi.png",
		"response": null,
		"trial_type": "image-keyboard-response",
		"trial_index": 212,
		"plugin_version": "2.1.0",
		"time_elapsed": 305682
	},
	{
		"task": "response",
		"correct_response": "j",
		"rt": 277,
		"stimulus": "\n        <p>Kas nurk oli suurem, väiksem või võrdne 90&deg; kraadiga võrreldes võrdlusnurgaga (90&deg;)?</p>\n        <p>Vajutage \"F\", kui nurk oli väiksem, \"J\", kui nurk oli suurem, või tühikuklahvi, kui nurk oli võrdne.</p>\n      ",
		"response": " ",
		"trial_type": "html-keyboard-response",
		"trial_index": 213,
		"plugin_version": "2.1.0",
		"time_elapsed": 305962,
		"correct": false
	},
	{
		"rt": null,
		"stimulus": "\n        <div style=\"text-align: center; font-size: 48px;\">+</div>\n      ",
		"response": null,
		"trial_type": "html-keyboard-response",
		"trial_index": 214,
		"plugin_version": "2.1.0",
		"time_elapsed": 307965
	},
	{
		"task": "fixation",
		"rt": null,
		"stimulus": "img/90.0 kraadi.png",
		"response": null,
		"trial_type": "image-keyboard-response",
		"trial_index": 215,
		"plugin_version": "2.1.0",
		"time_elapsed": 308975
	},
	{
		"task": "interval",
		"rt": null,
		"stimulus": "<div style=\"text-align: center;\"><p></p></div>",
		"response": null,
		"trial_type": "html-keyboard-response",
		"trial_index": 216,
		"plugin_version": "2.1.0",
		"time_elapsed": 310978
	},
	{
		"task": "stimulus",
		"rt": null,
		"stimulus": "img/90.0 kraadi.png",
		"response": null,
		"trial_type": "image-keyboard-response",
		"trial_index": 217,
		"plugin_version": "2.1.0",
		"time_elapsed": 311988
	},
	{
		"task": "response",
		"correct_response": " ",
		"rt": 548,
		"stimulus": "\n        <p>Kas nurk oli suurem, väiksem või võrdne 90&deg; kraadiga võrreldes võrdlusnurgaga (90&deg;)?</p>\n        <p>Vajutage \"F\", kui nurk oli väiksem, \"J\", kui nurk oli suurem, või tühikuklahvi, kui nurk oli võrdne.</p>\n      ",
		"response": "f",
		"trial_type": "html-keyboard-response",
		"trial_index": 218,
		"plugin_version": "2.1.0",
		"time_elapsed": 312538,
		"correct": false
	},
	{
		"rt": null,
		"stimulus": "\n        <div style=\"text-align: center; font-size: 48px;\">+</div>\n      ",
		"response": null,
		"trial_type": "html-keyboard-response",
		"trial_index": 219,
		"plugin_version": "2.1.0",
		"time_elapsed": 314541
	},
	{
		"task": "fixation",
		"rt": null,
		"stimulus": "img/90.0 kraadi.png",
		"response": null,
		"trial_type": "image-keyboard-response",
		"trial_index": 220,
		"plugin_version": "2.1.0",
		"time_elapsed": 315551
	},
	{
		"task": "interval",
		"rt": null,
		"stimulus": "<div style=\"text-align: center;\"><p></p></div>",
		"response": null,
		"trial_type": "html-keyboard-response",
		"trial_index": 221,
		"plugin_version": "2.1.0",
		"time_elapsed": 317554
	},
	{
		"task": "stimulus",
		"rt": null,
		"stimulus": "img/91.0 kraadi.png",
		"response": null,
		"trial_type": "image-keyboard-response",
		"trial_index": 222,
		"plugin_version": "2.1.0",
		"time_elapsed": 318588
	},
	{
		"task": "response",
		"correct_response": "j",
		"rt": 332,
		"stimulus": "\n        <p>Kas nurk oli suurem, väiksem või võrdne 90&deg; kraadiga võrreldes võrdlusnurgaga (90&deg;)?</p>\n        <p>Vajutage \"F\", kui nurk oli väiksem, \"J\", kui nurk oli suurem, või tühikuklahvi, kui nurk oli võrdne.</p>\n      ",
		"response": "j",
		"trial_type": "html-keyboard-response",
		"trial_index": 223,
		"plugin_version": "2.1.0",
		"time_elapsed": 318922,
		"correct": true
	},
	{
		"rt": null,
		"stimulus": "\n        <div style=\"text-align: center; font-size: 48px;\">+</div>\n      ",
		"response": null,
		"trial_type": "html-keyboard-response",
		"trial_index": 224,
		"plugin_version": "2.1.0",
		"time_elapsed": 320925
	},
	{
		"task": "fixation",
		"rt": null,
		"stimulus": "img/90.0 kraadi.png",
		"response": null,
		"trial_type": "image-keyboard-response",
		"trial_index": 225,
		"plugin_version": "2.1.0",
		"time_elapsed": 321935
	},
	{
		"task": "interval",
		"rt": null,
		"stimulus": "<div style=\"text-align: center;\"><p></p></div>",
		"response": null,
		"trial_type": "html-keyboard-response",
		"trial_index": 226,
		"plugin_version": "2.1.0",
		"time_elapsed": 323939
	},
	{
		"task": "stimulus",
		"rt": null,
		"stimulus": "img/90.4 kraadi.png",
		"response": null,
		"trial_type": "image-keyboard-response",
		"trial_index": 227,
		"plugin_version": "2.1.0",
		"time_elapsed": 324973
	},
	{
		"task": "response",
		"correct_response": "j",
		"rt": 254,
		"stimulus": "\n        <p>Kas nurk oli suurem, väiksem või võrdne 90&deg; kraadiga võrreldes võrdlusnurgaga (90&deg;)?</p>\n        <p>Vajutage \"F\", kui nurk oli väiksem, \"J\", kui nurk oli suurem, või tühikuklahvi, kui nurk oli võrdne.</p>\n      ",
		"response": "j",
		"trial_type": "html-keyboard-response",
		"trial_index": 228,
		"plugin_version": "2.1.0",
		"time_elapsed": 325229,
		"correct": true
	},
	{
		"rt": null,
		"stimulus": "\n        <div style=\"text-align: center; font-size: 48px;\">+</div>\n      ",
		"response": null,
		"trial_type": "html-keyboard-response",
		"trial_index": 229,
		"plugin_version": "2.1.0",
		"time_elapsed": 327233
	},
	{
		"task": "fixation",
		"rt": null,
		"stimulus": "img/90.0 kraadi.png",
		"response": null,
		"trial_type": "image-keyboard-response",
		"trial_index": 230,
		"plugin_version": "2.1.0",
		"time_elapsed": 328242
	},
	{
		"task": "interval",
		"rt": null,
		"stimulus": "<div style=\"text-align: center;\"><p></p></div>",
		"response": null,
		"trial_type": "html-keyboard-response",
		"trial_index": 231,
		"plugin_version": "2.1.0",
		"time_elapsed": 330245
	},
	{
		"task": "stimulus",
		"rt": null,
		"stimulus": "img/89.2 kraadi.png",
		"response": null,
		"trial_type": "image-keyboard-response",
		"trial_index": 232,
		"plugin_version": "2.1.0",
		"time_elapsed": 331279
	},
	{
		"task": "response",
		"correct_response": "f",
		"rt": 296,
		"stimulus": "\n        <p>Kas nurk oli suurem, väiksem või võrdne 90&deg; kraadiga võrreldes võrdlusnurgaga (90&deg;)?</p>\n        <p>Vajutage \"F\", kui nurk oli väiksem, \"J\", kui nurk oli suurem, või tühikuklahvi, kui nurk oli võrdne.</p>\n      ",
		"response": " ",
		"trial_type": "html-keyboard-response",
		"trial_index": 233,
		"plugin_version": "2.1.0",
		"time_elapsed": 331577,
		"correct": false
	},
	{
		"rt": null,
		"stimulus": "\n        <div style=\"text-align: center; font-size: 48px;\">+</div>\n      ",
		"response": null,
		"trial_type": "html-keyboard-response",
		"trial_index": 234,
		"plugin_version": "2.1.0",
		"time_elapsed": 333580
	},
	{
		"rt": 827,
		"stimulus": "\n          <p>Olete lõpetanud ploki 4 10-st.</p>\n          <p>Vajutage suvalist klahvi, et jätkata järgmise plokiga.</p>\n        ",
		"response": " ",
		"trial_type": "html-keyboard-response",
		"trial_index": 235,
		"plugin_version": "2.1.0",
		"time_elapsed": 334410
	},
	{
		"rt": 1321,
		"stimulus": "\n        <p>Võite teha lühikese pausi.</p>\n        <p>Vajutage suvalist klahvi, et jätkata järgmise plokiga.</p>\n      ",
		"response": " ",
		"trial_type": "html-keyboard-response",
		"trial_index": 236,
		"plugin_version": "2.1.0",
		"time_elapsed": 336734
	},
	{
		"task": "fixation",
		"rt": null,
		"stimulus": "img/90.0 kraadi.png",
		"response": null,
		"trial_type": "image-keyboard-response",
		"trial_index": 237,
		"plugin_version": "2.1.0",
		"time_elapsed": 338745
	},
	{
		"task": "interval",
		"rt": null,
		"stimulus": "<div style=\"text-align: center;\"><p></p></div>",
		"response": null,
		"trial_type": "html-keyboard-response",
		"trial_index": 238,
		"plugin_version": "2.1.0",
		"time_elapsed": 340749
	},
	{
		"task": "stimulus",
		"rt": null,
		"stimulus": "img/90.6 kraadi.png",
		"response": null,
		"trial_type": "image-keyboard-response",
		"trial_index": 239,
		"plugin_version": "2.1.0",
		"time_elapsed": 341758
	},
	{
		"task": "response",
		"correct_response": "j",
		"rt": 392,
		"stimulus": "\n        <p>Kas nurk oli suurem, väiksem või võrdne 90&deg; kraadiga võrreldes võrdlusnurgaga (90&deg;)?</p>\n        <p>Vajutage \"F\", kui nurk oli väiksem, \"J\", kui nurk oli suurem, või tühikuklahvi, kui nurk oli võrdne.</p>\n      ",
		"response": "j",
		"trial_type": "html-keyboard-response",
		"trial_index": 240,
		"plugin_version": "2.1.0",
		"time_elapsed": 342153,
		"correct": true
	},
	{
		"rt": null,
		"stimulus": "\n        <div style=\"text-align: center; font-size: 48px;\">+</div>\n      ",
		"response": null,
		"trial_type": "html-keyboard-response",
		"trial_index": 241,
		"plugin_version": "2.1.0",
		"time_elapsed": 344156
	},
	{
		"task": "fixation",
		"rt": null,
		"stimulus": "img/90.0 kraadi.png",
		"response": null,
		"trial_type": "image-keyboard-response",
		"trial_index": 242,
		"plugin_version": "2.1.0",
		"time_elapsed": 345166
	},
	{
		"task": "interval",
		"rt": null,
		"stimulus": "<div style=\"text-align: center;\"><p></p></div>",
		"response": null,
		"trial_type": "html-keyboard-response",
		"trial_index": 243,
		"plugin_version": "2.1.0",
		"time_elapsed": 347169
	},
	{
		"task": "stimulus",
		"rt": null,
		"stimulus": "img/89.6 kraadi.png",
		"response": null,
		"trial_type": "image-keyboard-response",
		"trial_index": 244,
		"plugin_version": "2.1.0",
		"time_elapsed": 348203
	},
	{
		"task": "response",
		"correct_response": "f",
		"rt": 690,
		"stimulus": "\n        <p>Kas nurk oli suurem, väiksem või võrdne 90&deg; kraadiga võrreldes võrdlusnurgaga (90&deg;)?</p>\n        <p>Vajutage \"F\", kui nurk oli väiksem, \"J\", kui nurk oli suurem, või tühikuklahvi, kui nurk oli võrdne.</p>\n      ",
		"response": "f",
		"trial_type": "html-keyboard-response",
		"trial_index": 245,
		"plugin_version": "2.1.0",
		"time_elapsed": 348896,
		"correct": true
	},
	{
		"rt": null,
		"stimulus": "\n        <div style=\"text-align: center; font-size: 48px;\">+</div>\n      ",
		"response": null,
		"trial_type": "html-keyboard-response",
		"trial_index": 246,
		"plugin_version": "2.1.0",
		"time_elapsed": 350899
	},
	{
		"task": "fixation",
		"rt": null,
		"stimulus": "img/90.0 kraadi.png",
		"response": null,
		"trial_type": "image-keyboard-response",
		"trial_index": 247,
		"plugin_version": "2.1.0",
		"time_elapsed": 351909
	},
	{
		"task": "interval",
		"rt": null,
		"stimulus": "<div style=\"text-align: center;\"><p></p></div>",
		"response": null,
		"trial_type": "html-keyboard-response",
		"trial_index": 248,
		"plugin_version": "2.1.0",
		"time_elapsed": 353912
	},
	{
		"task": "stimulus",
		"rt": null,
		"stimulus": "img/90.2 kraadi.png",
		"response": null,
		"trial_type": "image-keyboard-response",
		"trial_index": 249,
		"plugin_version": "2.1.0",
		"time_elapsed": 354922
	},
	{
		"task": "response",
		"correct_response": "j",
		"rt": 2254,
		"stimulus": "\n        <p>Kas nurk oli suurem, väiksem või võrdne 90&deg; kraadiga võrreldes võrdlusnurgaga (90&deg;)?</p>\n        <p>Vajutage \"F\", kui nurk oli väiksem, \"J\", kui nurk oli suurem, või tühikuklahvi, kui nurk oli võrdne.</p>\n      ",
		"response": " ",
		"trial_type": "html-keyboard-response",
		"trial_index": 250,
		"plugin_version": "2.1.0",
		"time_elapsed": 357179,
		"correct": false
	},
	{
		"rt": null,
		"stimulus": "\n        <div style=\"text-align: center; font-size: 48px;\">+</div>\n      ",
		"response": null,
		"trial_type": "html-keyboard-response",
		"trial_index": 251,
		"plugin_version": "2.1.0",
		"time_elapsed": 359182
	},
	{
		"task": "fixation",
		"rt": null,
		"stimulus": "img/90.0 kraadi.png",
		"response": null,
		"trial_type": "image-keyboard-response",
		"trial_index": 252,
		"plugin_version": "2.1.0",
		"time_elapsed": 360192
	},
	{
		"task": "interval",
		"rt": null,
		"stimulus": "<div style=\"text-align: center;\"><p></p></div>",
		"response": null,
		"trial_type": "html-keyboard-response",
		"trial_index": 253,
		"plugin_version": "2.1.0",
		"time_elapsed": 362195
	},
	{
		"task": "stimulus",
		"rt": null,
		"stimulus": "img/89.4 kraadi.png",
		"response": null,
		"trial_type": "image-keyboard-response",
		"trial_index": 254,
		"plugin_version": "2.1.0",
		"time_elapsed": 363207
	},
	{
		"task": "response",
		"correct_response": "f",
		"rt": 316,
		"stimulus": "\n        <p>Kas nurk oli suurem, väiksem või võrdne 90&deg; kraadiga võrreldes võrdlusnurgaga (90&deg;)?</p>\n        <p>Vajutage \"F\", kui nurk oli väiksem, \"J\", kui nurk oli suurem, või tühikuklahvi, kui nurk oli võrdne.</p>\n      ",
		"response": "f",
		"trial_type": "html-keyboard-response",
		"trial_index": 255,
		"plugin_version": "2.1.0",
		"time_elapsed": 363525,
		"correct": true
	},
	{
		"rt": null,
		"stimulus": "\n        <div style=\"text-align: center; font-size: 48px;\">+</div>\n      ",
		"response": null,
		"trial_type": "html-keyboard-response",
		"trial_index": 256,
		"plugin_version": "2.1.0",
		"time_elapsed": 365527
	},
	{
		"task": "fixation",
		"rt": null,
		"stimulus": "img/90.0 kraadi.png",
		"response": null,
		"trial_type": "image-keyboard-response",
		"trial_index": 257,
		"plugin_version": "2.1.0",
		"time_elapsed": 366536
	},
	{
		"task": "interval",
		"rt": null,
		"stimulus": "<div style=\"text-align: center;\"><p></p></div>",
		"response": null,
		"trial_type": "html-keyboard-response",
		"trial_index": 258,
		"plugin_version": "2.1.0",
		"time_elapsed": 368537
	},
	{
		"task": "stimulus",
		"rt": null,
		"stimulus": "img/90.4 kraadi.png",
		"response": null,
		"trial_type": "image-keyboard-response",
		"trial_index": 259,
		"plugin_version": "2.1.0",
		"time_elapsed": 369546
	},
	{
		"task": "response",
		"correct_response": "j",
		"rt": 1335,
		"stimulus": "\n        <p>Kas nurk oli suurem, väiksem või võrdne 90&deg; kraadiga võrreldes võrdlusnurgaga (90&deg;)?</p>\n        <p>Vajutage \"F\", kui nurk oli väiksem, \"J\", kui nurk oli suurem, või tühikuklahvi, kui nurk oli võrdne.</p>\n      ",
		"response": " ",
		"trial_type": "html-keyboard-response",
		"trial_index": 260,
		"plugin_version": "2.1.0",
		"time_elapsed": 370882,
		"correct": false
	},
	{
		"rt": null,
		"stimulus": "\n        <div style=\"text-align: center; font-size: 48px;\">+</div>\n      ",
		"response": null,
		"trial_type": "html-keyboard-response",
		"trial_index": 261,
		"plugin_version": "2.1.0",
		"time_elapsed": 372884
	},
	{
		"task": "fixation",
		"rt": null,
		"stimulus": "img/90.0 kraadi.png",
		"response": null,
		"trial_type": "image-keyboard-response",
		"trial_index": 262,
		"plugin_version": "2.1.0",
		"time_elapsed": 373893
	},
	{
		"task": "interval",
		"rt": null,
		"stimulus": "<div style=\"text-align: center;\"><p></p></div>",
		"response": null,
		"trial_type": "html-keyboard-response",
		"trial_index": 263,
		"plugin_version": "2.1.0",
		"time_elapsed": 375895
	},
	{
		"task": "stimulus",
		"rt": null,
		"stimulus": "img/89.8 kraadi.png",
		"response": null,
		"trial_type": "image-keyboard-response",
		"trial_index": 264,
		"plugin_version": "2.1.0",
		"time_elapsed": 376930
	},
	{
		"task": "response",
		"correct_response": "f",
		"rt": 541,
		"stimulus": "\n        <p>Kas nurk oli suurem, väiksem või võrdne 90&deg; kraadiga võrreldes võrdlusnurgaga (90&deg;)?</p>\n        <p>Vajutage \"F\", kui nurk oli väiksem, \"J\", kui nurk oli suurem, või tühikuklahvi, kui nurk oli võrdne.</p>\n      ",
		"response": "f",
		"trial_type": "html-keyboard-response",
		"trial_index": 265,
		"plugin_version": "2.1.0",
		"time_elapsed": 377473,
		"correct": true
	},
	{
		"rt": null,
		"stimulus": "\n        <div style=\"text-align: center; font-size: 48px;\">+</div>\n      ",
		"response": null,
		"trial_type": "html-keyboard-response",
		"trial_index": 266,
		"plugin_version": "2.1.0",
		"time_elapsed": 379476
	},
	{
		"task": "fixation",
		"rt": null,
		"stimulus": "img/90.0 kraadi.png",
		"response": null,
		"trial_type": "image-keyboard-response",
		"trial_index": 267,
		"plugin_version": "2.1.0",
		"time_elapsed": 380484
	},
	{
		"task": "interval",
		"rt": null,
		"stimulus": "<div style=\"text-align: center;\"><p></p></div>",
		"response": null,
		"trial_type": "html-keyboard-response",
		"trial_index": 268,
		"plugin_version": "2.1.0",
		"time_elapsed": 382487
	},
	{
		"task": "stimulus",
		"rt": null,
		"stimulus": "img/89.0 kraadi.png",
		"response": null,
		"trial_type": "image-keyboard-response",
		"trial_index": 269,
		"plugin_version": "2.1.0",
		"time_elapsed": 383520
	},
	{
		"task": "response",
		"correct_response": "f",
		"rt": 877,
		"stimulus": "\n        <p>Kas nurk oli suurem, väiksem või võrdne 90&deg; kraadiga võrreldes võrdlusnurgaga (90&deg;)?</p>\n        <p>Vajutage \"F\", kui nurk oli väiksem, \"J\", kui nurk oli suurem, või tühikuklahvi, kui nurk oli võrdne.</p>\n      ",
		"response": "f",
		"trial_type": "html-keyboard-response",
		"trial_index": 270,
		"plugin_version": "2.1.0",
		"time_elapsed": 384399,
		"correct": true
	},
	{
		"rt": null,
		"stimulus": "\n        <div style=\"text-align: center; font-size: 48px;\">+</div>\n      ",
		"response": null,
		"trial_type": "html-keyboard-response",
		"trial_index": 271,
		"plugin_version": "2.1.0",
		"time_elapsed": 386403
	},
	{
		"task": "fixation",
		"rt": null,
		"stimulus": "img/90.0 kraadi.png",
		"response": null,
		"trial_type": "image-keyboard-response",
		"trial_index": 272,
		"plugin_version": "2.1.0",
		"time_elapsed": 387415
	},
	{
		"task": "interval",
		"rt": null,
		"stimulus": "<div style=\"text-align: center;\"><p></p></div>",
		"response": null,
		"trial_type": "html-keyboard-response",
		"trial_index": 273,
		"plugin_version": "2.1.0",
		"time_elapsed": 389417
	},
	{
		"task": "stimulus",
		"rt": null,
		"stimulus": "img/89.2 kraadi.png",
		"response": null,
		"trial_type": "image-keyboard-response",
		"trial_index": 274,
		"plugin_version": "2.1.0",
		"time_elapsed": 390454
	},
	{
		"task": "response",
		"correct_response": "f",
		"rt": 842,
		"stimulus": "\n        <p>Kas nurk oli suurem, väiksem või võrdne 90&deg; kraadiga võrreldes võrdlusnurgaga (90&deg;)?</p>\n        <p>Vajutage \"F\", kui nurk oli väiksem, \"J\", kui nurk oli suurem, või tühikuklahvi, kui nurk oli võrdne.</p>\n      ",
		"response": " ",
		"trial_type": "html-keyboard-response",
		"trial_index": 275,
		"plugin_version": "2.1.0",
		"time_elapsed": 391298,
		"correct": false
	},
	{
		"rt": null,
		"stimulus": "\n        <div style=\"text-align: center; font-size: 48px;\">+</div>\n      ",
		"response": null,
		"trial_type": "html-keyboard-response",
		"trial_index": 276,
		"plugin_version": "2.1.0",
		"time_elapsed": 393301
	},
	{
		"task": "fixation",
		"rt": null,
		"stimulus": "img/90.0 kraadi.png",
		"response": null,
		"trial_type": "image-keyboard-response",
		"trial_index": 277,
		"plugin_version": "2.1.0",
		"time_elapsed": 394310
	},
	{
		"task": "interval",
		"rt": null,
		"stimulus": "<div style=\"text-align: center;\"><p></p></div>",
		"response": null,
		"trial_type": "html-keyboard-response",
		"trial_index": 278,
		"plugin_version": "2.1.0",
		"time_elapsed": 396313
	},
	{
		"task": "stimulus",
		"rt": null,
		"stimulus": "img/90.0 kraadi.png",
		"response": null,
		"trial_type": "image-keyboard-response",
		"trial_index": 279,
		"plugin_version": "2.1.0",
		"time_elapsed": 397323
	},
	{
		"task": "response",
		"correct_response": " ",
		"rt": 948,
		"stimulus": "\n        <p>Kas nurk oli suurem, väiksem või võrdne 90&deg; kraadiga võrreldes võrdlusnurgaga (90&deg;)?</p>\n        <p>Vajutage \"F\", kui nurk oli väiksem, \"J\", kui nurk oli suurem, või tühikuklahvi, kui nurk oli võrdne.</p>\n      ",
		"response": " ",
		"trial_type": "html-keyboard-response",
		"trial_index": 280,
		"plugin_version": "2.1.0",
		"time_elapsed": 398273,
		"correct": true
	},
	{
		"rt": null,
		"stimulus": "\n        <div style=\"text-align: center; font-size: 48px;\">+</div>\n      ",
		"response": null,
		"trial_type": "html-keyboard-response",
		"trial_index": 281,
		"plugin_version": "2.1.0",
		"time_elapsed": 400275
	},
	{
		"task": "fixation",
		"rt": null,
		"stimulus": "img/90.0 kraadi.png",
		"response": null,
		"trial_type": "image-keyboard-response",
		"trial_index": 282,
		"plugin_version": "2.1.0",
		"time_elapsed": 401285
	},
	{
		"task": "interval",
		"rt": null,
		"stimulus": "<div style=\"text-align: center;\"><p></p></div>",
		"response": null,
		"trial_type": "html-keyboard-response",
		"trial_index": 283,
		"plugin_version": "2.1.0",
		"time_elapsed": 403288
	},
	{
		"task": "stimulus",
		"rt": null,
		"stimulus": "img/90.8 kraadi.png",
		"response": null,
		"trial_type": "image-keyboard-response",
		"trial_index": 284,
		"plugin_version": "2.1.0",
		"time_elapsed": 404324
	},
	{
		"task": "response",
		"correct_response": "j",
		"rt": 547,
		"stimulus": "\n        <p>Kas nurk oli suurem, väiksem või võrdne 90&deg; kraadiga võrreldes võrdlusnurgaga (90&deg;)?</p>\n        <p>Vajutage \"F\", kui nurk oli väiksem, \"J\", kui nurk oli suurem, või tühikuklahvi, kui nurk oli võrdne.</p>\n      ",
		"response": "j",
		"trial_type": "html-keyboard-response",
		"trial_index": 285,
		"plugin_version": "2.1.0",
		"time_elapsed": 404873,
		"correct": true
	},
	{
		"rt": null,
		"stimulus": "\n        <div style=\"text-align: center; font-size: 48px;\">+</div>\n      ",
		"response": null,
		"trial_type": "html-keyboard-response",
		"trial_index": 286,
		"plugin_version": "2.1.0",
		"time_elapsed": 406877
	},
	{
		"task": "fixation",
		"rt": null,
		"stimulus": "img/90.0 kraadi.png",
		"response": null,
		"trial_type": "image-keyboard-response",
		"trial_index": 287,
		"plugin_version": "2.1.0",
		"time_elapsed": 407885
	},
	{
		"task": "interval",
		"rt": null,
		"stimulus": "<div style=\"text-align: center;\"><p></p></div>",
		"response": null,
		"trial_type": "html-keyboard-response",
		"trial_index": 288,
		"plugin_version": "2.1.0",
		"time_elapsed": 409888
	},
	{
		"task": "stimulus",
		"rt": null,
		"stimulus": "img/91.0 kraadi.png",
		"response": null,
		"trial_type": "image-keyboard-response",
		"trial_index": 289,
		"plugin_version": "2.1.0",
		"time_elapsed": 410921
	},
	{
		"task": "response",
		"correct_response": "j",
		"rt": 1607,
		"stimulus": "\n        <p>Kas nurk oli suurem, väiksem või võrdne 90&deg; kraadiga võrreldes võrdlusnurgaga (90&deg;)?</p>\n        <p>Vajutage \"F\", kui nurk oli väiksem, \"J\", kui nurk oli suurem, või tühikuklahvi, kui nurk oli võrdne.</p>\n      ",
		"response": "j",
		"trial_type": "html-keyboard-response",
		"trial_index": 290,
		"plugin_version": "2.1.0",
		"time_elapsed": 412530,
		"correct": true
	},
	{
		"rt": null,
		"stimulus": "\n        <div style=\"text-align: center; font-size: 48px;\">+</div>\n      ",
		"response": null,
		"trial_type": "html-keyboard-response",
		"trial_index": 291,
		"plugin_version": "2.1.0",
		"time_elapsed": 414533
	},
	{
		"rt": 1095,
		"stimulus": "\n          <p>Olete lõpetanud ploki 5 10-st.</p>\n          <p>Vajutage suvalist klahvi, et jätkata järgmise plokiga.</p>\n        ",
		"response": " ",
		"trial_type": "html-keyboard-response",
		"trial_index": 292,
		"plugin_version": "2.1.0",
		"time_elapsed": 415632
	},
	{
		"rt": 897,
		"stimulus": "\n        <p>Võite teha lühikese pausi.</p>\n        <p>Vajutage suvalist klahvi, et jätkata järgmise plokiga.</p>\n      ",
		"response": " ",
		"trial_type": "html-keyboard-response",
		"trial_index": 293,
		"plugin_version": "2.1.0",
		"time_elapsed": 417532
	},
	{
		"task": "fixation",
		"rt": null,
		"stimulus": "img/90.0 kraadi.png",
		"response": null,
		"trial_type": "image-keyboard-response",
		"trial_index": 294,
		"plugin_version": "2.1.0",
		"time_elapsed": 419544
	},
	{
		"task": "interval",
		"rt": null,
		"stimulus": "<div style=\"text-align: center;\"><p></p></div>",
		"response": null,
		"trial_type": "html-keyboard-response",
		"trial_index": 295,
		"plugin_version": "2.1.0",
		"time_elapsed": 421547
	},
	{
		"task": "stimulus",
		"rt": null,
		"stimulus": "img/91.0 kraadi.png",
		"response": null,
		"trial_type": "image-keyboard-response",
		"trial_index": 296,
		"plugin_version": "2.1.0",
		"time_elapsed": 422557
	},
	{
		"task": "response",
		"correct_response": "j",
		"rt": 681,
		"stimulus": "\n        <p>Kas nurk oli suurem, väiksem või võrdne 90&deg; kraadiga võrreldes võrdlusnurgaga (90&deg;)?</p>\n        <p>Vajutage \"F\", kui nurk oli väiksem, \"J\", kui nurk oli suurem, või tühikuklahvi, kui nurk oli võrdne.</p>\n      ",
		"response": "j",
		"trial_type": "html-keyboard-response",
		"trial_index": 297,
		"plugin_version": "2.1.0",
		"time_elapsed": 423240,
		"correct": true
	},
	{
		"rt": null,
		"stimulus": "\n        <div style=\"text-align: center; font-size: 48px;\">+</div>\n      ",
		"response": null,
		"trial_type": "html-keyboard-response",
		"trial_index": 298,
		"plugin_version": "2.1.0",
		"time_elapsed": 425243
	},
	{
		"task": "fixation",
		"rt": null,
		"stimulus": "img/90.0 kraadi.png",
		"response": null,
		"trial_type": "image-keyboard-response",
		"trial_index": 299,
		"plugin_version": "2.1.0",
		"time_elapsed": 426253
	},
	{
		"task": "interval",
		"rt": null,
		"stimulus": "<div style=\"text-align: center;\"><p></p></div>",
		"response": null,
		"trial_type": "html-keyboard-response",
		"trial_index": 300,
		"plugin_version": "2.1.0",
		"time_elapsed": 428256
	},
	{
		"task": "stimulus",
		"rt": null,
		"stimulus": "img/90.2 kraadi.png",
		"response": null,
		"trial_type": "image-keyboard-response",
		"trial_index": 301,
		"plugin_version": "2.1.0",
		"time_elapsed": 429292
	},
	{
		"task": "response",
		"correct_response": "j",
		"rt": 2214,
		"stimulus": "\n        <p>Kas nurk oli suurem, väiksem või võrdne 90&deg; kraadiga võrreldes võrdlusnurgaga (90&deg;)?</p>\n        <p>Vajutage \"F\", kui nurk oli väiksem, \"J\", kui nurk oli suurem, või tühikuklahvi, kui nurk oli võrdne.</p>\n      ",
		"response": "f",
		"trial_type": "html-keyboard-response",
		"trial_index": 302,
		"plugin_version": "2.1.0",
		"time_elapsed": 431508,
		"correct": false
	},
	{
		"rt": null,
		"stimulus": "\n        <div style=\"text-align: center; font-size: 48px;\">+</div>\n      ",
		"response": null,
		"trial_type": "html-keyboard-response",
		"trial_index": 303,
		"plugin_version": "2.1.0",
		"time_elapsed": 433511
	},
	{
		"task": "fixation",
		"rt": null,
		"stimulus": "img/90.0 kraadi.png",
		"response": null,
		"trial_type": "image-keyboard-response",
		"trial_index": 304,
		"plugin_version": "2.1.0",
		"time_elapsed": 434522
	},
	{
		"task": "interval",
		"rt": null,
		"stimulus": "<div style=\"text-align: center;\"><p></p></div>",
		"response": null,
		"trial_type": "html-keyboard-response",
		"trial_index": 305,
		"plugin_version": "2.1.0",
		"time_elapsed": 436525
	},
	{
		"task": "stimulus",
		"rt": null,
		"stimulus": "img/89.8 kraadi.png",
		"response": null,
		"trial_type": "image-keyboard-response",
		"trial_index": 306,
		"plugin_version": "2.1.0",
		"time_elapsed": 437535
	},
	{
		"task": "response",
		"correct_response": "f",
		"rt": 1348,
		"stimulus": "\n        <p>Kas nurk oli suurem, väiksem või võrdne 90&deg; kraadiga võrreldes võrdlusnurgaga (90&deg;)?</p>\n        <p>Vajutage \"F\", kui nurk oli väiksem, \"J\", kui nurk oli suurem, või tühikuklahvi, kui nurk oli võrdne.</p>\n      ",
		"response": " ",
		"trial_type": "html-keyboard-response",
		"trial_index": 307,
		"plugin_version": "2.1.0",
		"time_elapsed": 438885,
		"correct": false
	},
	{
		"rt": null,
		"stimulus": "\n        <div style=\"text-align: center; font-size: 48px;\">+</div>\n      ",
		"response": null,
		"trial_type": "html-keyboard-response",
		"trial_index": 308,
		"plugin_version": "2.1.0",
		"time_elapsed": 440888
	},
	{
		"task": "fixation",
		"rt": null,
		"stimulus": "img/90.0 kraadi.png",
		"response": null,
		"trial_type": "image-keyboard-response",
		"trial_index": 309,
		"plugin_version": "2.1.0",
		"time_elapsed": 441900
	},
	{
		"task": "interval",
		"rt": null,
		"stimulus": "<div style=\"text-align: center;\"><p></p></div>",
		"response": null,
		"trial_type": "html-keyboard-response",
		"trial_index": 310,
		"plugin_version": "2.1.0",
		"time_elapsed": 443903
	},
	{
		"task": "stimulus",
		"rt": null,
		"stimulus": "img/89.0 kraadi.png",
		"response": null,
		"trial_type": "image-keyboard-response",
		"trial_index": 311,
		"plugin_version": "2.1.0",
		"time_elapsed": 444913
	},
	{
		"task": "response",
		"correct_response": "f",
		"rt": 389,
		"stimulus": "\n        <p>Kas nurk oli suurem, väiksem või võrdne 90&deg; kraadiga võrreldes võrdlusnurgaga (90&deg;)?</p>\n        <p>Vajutage \"F\", kui nurk oli väiksem, \"J\", kui nurk oli suurem, või tühikuklahvi, kui nurk oli võrdne.</p>\n      ",
		"response": "f",
		"trial_type": "html-keyboard-response",
		"trial_index": 312,
		"plugin_version": "2.1.0",
		"time_elapsed": 445304,
		"correct": true
	},
	{
		"rt": null,
		"stimulus": "\n        <div style=\"text-align: center; font-size: 48px;\">+</div>\n      ",
		"response": null,
		"trial_type": "html-keyboard-response",
		"trial_index": 313,
		"plugin_version": "2.1.0",
		"time_elapsed": 447307
	},
	{
		"task": "fixation",
		"rt": null,
		"stimulus": "img/90.0 kraadi.png",
		"response": null,
		"trial_type": "image-keyboard-response",
		"trial_index": 314,
		"plugin_version": "2.1.0",
		"time_elapsed": 448319
	},
	{
		"task": "interval",
		"rt": null,
		"stimulus": "<div style=\"text-align: center;\"><p></p></div>",
		"response": null,
		"trial_type": "html-keyboard-response",
		"trial_index": 315,
		"plugin_version": "2.1.0",
		"time_elapsed": 450322
	},
	{
		"task": "stimulus",
		"rt": null,
		"stimulus": "img/89.6 kraadi.png",
		"response": null,
		"trial_type": "image-keyboard-response",
		"trial_index": 316,
		"plugin_version": "2.1.0",
		"time_elapsed": 451357
	},
	{
		"task": "response",
		"correct_response": "f",
		"rt": 714,
		"stimulus": "\n        <p>Kas nurk oli suurem, väiksem või võrdne 90&deg; kraadiga võrreldes võrdlusnurgaga (90&deg;)?</p>\n        <p>Vajutage \"F\", kui nurk oli väiksem, \"J\", kui nurk oli suurem, või tühikuklahvi, kui nurk oli võrdne.</p>\n      ",
		"response": "f",
		"trial_type": "html-keyboard-response",
		"trial_index": 317,
		"plugin_version": "2.1.0",
		"time_elapsed": 452073,
		"correct": true
	},
	{
		"rt": null,
		"stimulus": "\n        <div style=\"text-align: center; font-size: 48px;\">+</div>\n      ",
		"response": null,
		"trial_type": "html-keyboard-response",
		"trial_index": 318,
		"plugin_version": "2.1.0",
		"time_elapsed": 454076
	},
	{
		"task": "fixation",
		"rt": null,
		"stimulus": "img/90.0 kraadi.png",
		"response": null,
		"trial_type": "image-keyboard-response",
		"trial_index": 319,
		"plugin_version": "2.1.0",
		"time_elapsed": 455086
	},
	{
		"task": "interval",
		"rt": null,
		"stimulus": "<div style=\"text-align: center;\"><p></p></div>",
		"response": null,
		"trial_type": "html-keyboard-response",
		"trial_index": 320,
		"plugin_version": "2.1.0",
		"time_elapsed": 457089
	},
	{
		"task": "stimulus",
		"rt": null,
		"stimulus": "img/90.8 kraadi.png",
		"response": null,
		"trial_type": "image-keyboard-response",
		"trial_index": 321,
		"plugin_version": "2.1.0",
		"time_elapsed": 458124
	},
	{
		"task": "response",
		"correct_response": "j",
		"rt": 234,
		"stimulus": "\n        <p>Kas nurk oli suurem, väiksem või võrdne 90&deg; kraadiga võrreldes võrdlusnurgaga (90&deg;)?</p>\n        <p>Vajutage \"F\", kui nurk oli väiksem, \"J\", kui nurk oli suurem, või tühikuklahvi, kui nurk oli võrdne.</p>\n      ",
		"response": "j",
		"trial_type": "html-keyboard-response",
		"trial_index": 322,
		"plugin_version": "2.1.0",
		"time_elapsed": 458360,
		"correct": true
	},
	{
		"rt": null,
		"stimulus": "\n        <div style=\"text-align: center; font-size: 48px;\">+</div>\n      ",
		"response": null,
		"trial_type": "html-keyboard-response",
		"trial_index": 323,
		"plugin_version": "2.1.0",
		"time_elapsed": 460363
	},
	{
		"task": "fixation",
		"rt": null,
		"stimulus": "img/90.0 kraadi.png",
		"response": null,
		"trial_type": "image-keyboard-response",
		"trial_index": 324,
		"plugin_version": "2.1.0",
		"time_elapsed": 461373
	},
	{
		"task": "interval",
		"rt": null,
		"stimulus": "<div style=\"text-align: center;\"><p></p></div>",
		"response": null,
		"trial_type": "html-keyboard-response",
		"trial_index": 325,
		"plugin_version": "2.1.0",
		"time_elapsed": 463376
	},
	{
		"task": "stimulus",
		"rt": null,
		"stimulus": "img/90.0 kraadi.png",
		"response": null,
		"trial_type": "image-keyboard-response",
		"trial_index": 326,
		"plugin_version": "2.1.0",
		"time_elapsed": 464384
	},
	{
		"task": "response",
		"correct_response": " ",
		"rt": 87,
		"stimulus": "\n        <p>Kas nurk oli suurem, väiksem või võrdne 90&deg; kraadiga võrreldes võrdlusnurgaga (90&deg;)?</p>\n        <p>Vajutage \"F\", kui nurk oli väiksem, \"J\", kui nurk oli suurem, või tühikuklahvi, kui nurk oli võrdne.</p>\n      ",
		"response": "j",
		"trial_type": "html-keyboard-response",
		"trial_index": 327,
		"plugin_version": "2.1.0",
		"time_elapsed": 464474,
		"correct": false
	},
	{
		"rt": null,
		"stimulus": "\n        <div style=\"text-align: center; font-size: 48px;\">+</div>\n      ",
		"response": null,
		"trial_type": "html-keyboard-response",
		"trial_index": 328,
		"plugin_version": "2.1.0",
		"time_elapsed": 466477
	},
	{
		"task": "fixation",
		"rt": null,
		"stimulus": "img/90.0 kraadi.png",
		"response": null,
		"trial_type": "image-keyboard-response",
		"trial_index": 329,
		"plugin_version": "2.1.0",
		"time_elapsed": 467487
	},
	{
		"task": "interval",
		"rt": null,
		"stimulus": "<div style=\"text-align: center;\"><p></p></div>",
		"response": null,
		"trial_type": "html-keyboard-response",
		"trial_index": 330,
		"plugin_version": "2.1.0",
		"time_elapsed": 469490
	},
	{
		"task": "stimulus",
		"rt": null,
		"stimulus": "img/90.4 kraadi.png",
		"response": null,
		"trial_type": "image-keyboard-response",
		"trial_index": 331,
		"plugin_version": "2.1.0",
		"time_elapsed": 470526
	},
	{
		"task": "response",
		"correct_response": "j",
		"rt": 159,
		"stimulus": "\n        <p>Kas nurk oli suurem, väiksem või võrdne 90&deg; kraadiga võrreldes võrdlusnurgaga (90&deg;)?</p>\n        <p>Vajutage \"F\", kui nurk oli väiksem, \"J\", kui nurk oli suurem, või tühikuklahvi, kui nurk oli võrdne.</p>\n      ",
		"response": "j",
		"trial_type": "html-keyboard-response",
		"trial_index": 332,
		"plugin_version": "2.1.0",
		"time_elapsed": 470688,
		"correct": true
	},
	{
		"rt": null,
		"stimulus": "\n        <div style=\"text-align: center; font-size: 48px;\">+</div>\n      ",
		"response": null,
		"trial_type": "html-keyboard-response",
		"trial_index": 333,
		"plugin_version": "2.1.0",
		"time_elapsed": 472691
	},
	{
		"task": "fixation",
		"rt": null,
		"stimulus": "img/90.0 kraadi.png",
		"response": null,
		"trial_type": "image-keyboard-response",
		"trial_index": 334,
		"plugin_version": "2.1.0",
		"time_elapsed": 473701
	},
	{
		"task": "interval",
		"rt": null,
		"stimulus": "<div style=\"text-align: center;\"><p></p></div>",
		"response": null,
		"trial_type": "html-keyboard-response",
		"trial_index": 335,
		"plugin_version": "2.1.0",
		"time_elapsed": 475704
	},
	{
		"task": "stimulus",
		"rt": null,
		"stimulus": "img/89.4 kraadi.png",
		"response": null,
		"trial_type": "image-keyboard-response",
		"trial_index": 336,
		"plugin_version": "2.1.0",
		"time_elapsed": 476728
	},
	{
		"task": "response",
		"correct_response": "f",
		"rt": 261,
		"stimulus": "\n        <p>Kas nurk oli suurem, väiksem või võrdne 90&deg; kraadiga võrreldes võrdlusnurgaga (90&deg;)?</p>\n        <p>Vajutage \"F\", kui nurk oli väiksem, \"J\", kui nurk oli suurem, või tühikuklahvi, kui nurk oli võrdne.</p>\n      ",
		"response": "f",
		"trial_type": "html-keyboard-response",
		"trial_index": 337,
		"plugin_version": "2.1.0",
		"time_elapsed": 476991,
		"correct": true
	},
	{
